"Time (s)","Linear Acceleration x (m/s^2)","Linear Acceleration y (m/s^2)","Linear Acceleration z (m/s^2)"
1.215565200E-1,-7.016928792E-1,-3.833677769E-1,-8.122014999E-1
1.393808620E-1,-7.749111652E-1,-2.812225819E-1,-8.914690018E-1
1.572039810E-1,-8.611444831E-1,-2.686707973E-1,-7.324838638E-1
1.750271020E-1,-7.491704822E-1,1.374864578E-2,-5.552597046E-1
1.928515640E-1,-6.535848975E-1,1.773443222E-1,-7.409095764E-3
2.106771870E-1,-7.799079418E-1,1.141152382E-1,3.695297241E-2
2.284989640E-1,-5.804855824E-1,1.965250969E-1,2.996034622E-1
2.463184830E-1,-5.043683052E-1,2.100031376E-1,6.892347336E-1
2.641469740E-1,-5.944806337E-1,1.518322229E-1,5.387897491E-1
2.819660670E-1,-4.794720411E-1,2.958717346E-1,6.013288498E-1
2.997940690E-1,-2.461996973E-1,5.087801218E-1,3.636236191E-1
3.176180440E-1,-2.349710613E-1,4.259216785E-1,3.389034271E-1
3.354418960E-1,-2.784643471E-1,2.338919640E-1,2.839126587E-1
3.532663590E-1,-2.832433581E-1,1.979813576E-1,3.211860657E-1
3.710877700E-1,-3.459948003E-1,1.217187643E-1,3.306913376E-1
3.889142470E-1,-4.618814886E-1,-4.636573792E-2,2.269220352E-1
4.067370010E-1,-3.114135861E-1,1.460624933E-1,3.278408051E-1
4.245434580E-1,-3.057515025E-1,1.634109020E-1,1.349000931E-1
4.423836690E-1,-8.125081658E-2,3.901230097E-1,3.183870316E-1
4.602052630E-1,2.265924215E-2,5.785980225E-1,7.751369476E-1
4.780348530E-1,-2.710206509E-1,5.321794748E-1,9.083814621E-1
4.958547990E-1,-3.675969243E-1,6.587125063E-1,1.239356995E0
5.136754170E-1,-4.073941410E-1,5.372753143E-1,1.334088326E0
5.315028700E-1,-3.258776665E-2,4.853215218E-1,1.711865425E0
5.493232440E-1,2.434111238E-1,1.716548204E-1,2.444678307E0
5.671507580E-1,3.630250096E-1,-2.164165974E-1,3.255671501E0
5.849741230E-1,2.972229123E-1,-4.826816320E-1,3.341053963E0
6.027965110E-1,4.009580612E-2,-4.431052208E-1,2.476711273E0
6.206229880E-1,-4.641908407E-2,-4.356266260E-1,1.017488480E0
6.384454360E-1,-2.841601968E-1,-7.185199261E-1,-2.312021255E-1
6.562697770E-1,-5.272712111E-1,-1.154859424E0,-9.523048401E-1
6.740929580E-1,-5.430625677E-1,-1.667379260E0,-1.602978230E0
6.919166890E-1,-1.701422334E-1,-1.953642726E0,-1.746617794E0
7.097406630E-1,6.484948993E-1,-1.952795982E0,-1.316181183E0
7.275638440E-1,1.154340267E0,-2.189269543E0,-3.015909195E-1
7.453878800E-1,1.405784607E0,-2.129035234E0,2.221984863E-1
7.632114270E-1,1.604941607E0,-1.511637449E0,2.538261414E-1
7.810353410E-1,1.758582115E0,-4.104056358E-1,-5.426769257E-1
7.988461320E-1,1.452388287E0,7.245945930E-2,-1.078802109E0
8.166798110E-1,7.901592255E-1,5.831813812E-2,-1.494474411E0
8.345053730E-1,5.734789371E-2,-2.629837990E-1,-1.498651981E0
8.523270890E-1,-3.794469237E-1,-4.494338036E-1,-1.520714283E0
8.701534440E-1,-6.001435518E-1,-6.780116558E-1,-1.305176735E0
8.879774800E-1,-7.682742476E-1,-8.520445824E-1,-1.302686691E0
9.058012100E-1,-5.256704092E-1,-9.073290825E-1,-8.777608871E-1
9.236249400E-1,-3.170209229E-1,-9.311337471E-1,-6.422891617E-1
9.414484270E-1,-2.750608325E-2,-9.349107742E-1,-5.348701477E-1
9.592728290E-1,1.085028052E-1,-1.049165726E0,-3.582096100E-1
9.770961930E-1,4.175243974E-1,-7.423913479E-1,-7.381772995E-1
9.949201670E-1,8.663505912E-1,-1.687893867E-1,-1.145522118E0
1.012743288E0,1.272604942E0,5.256676674E-1,-1.336261749E0
1.030567506E0,1.498264790E0,9.347445965E-1,-8.905467987E-1
1.048386232E0,1.313514352E0,8.934822083E-1,-3.017749786E-1
1.066214723E0,1.016615391E0,9.394466877E-1,-1.147642136E-1
1.084038271E0,9.411387444E-1,1.231208086E0,1.295394897E-1
1.101860964E0,9.509215355E-1,1.330565453E0,7.521352768E-1
1.119682375E0,4.949702024E-1,9.613132477E-1,1.588189125E0
1.137508486E0,-1.663430035E-1,1.376848221E-1,2.340692520E0
1.155330019E0,-5.885578990E-1,-6.798224449E-1,3.034759521E0
1.173156923E0,-7.914940715E-1,-7.720990181E-1,3.235057831E0
1.190980653E0,-1.095329523E0,1.730227470E-1,2.186345100E0
1.208804628E0,-1.119933963E0,6.080372334E-1,3.374214172E-1
1.226627565E0,-1.113499403E-1,6.455373764E-2,1.226817131E0
1.244451845E0,1.623554081E-1,-2.018053532E0,4.248373032E0
1.262275575E0,-4.714971781E-1,-3.719912052E0,5.559408188E0
1.280099368E0,-8.434693813E-1,-3.805934191E0,2.769386292E0
1.297922426E0,-7.953798771E-1,-2.430648804E0,-7.201356888E-1
1.315746339E0,-9.652122259E-1,-1.733009100E0,-2.758401394E0
1.333570192E0,-7.467218041E-1,-1.476479292E0,-2.805113792E0
1.351394044E0,-5.137319565E-1,-1.876050949E0,-9.708929062E-1
1.369216005E0,-2.873668373E-1,-2.061251879E0,-2.515735626E-1
1.387042360E0,-6.635650061E-3,-2.168663502E0,4.230442047E-1
1.404863772E0,8.313108236E-2,-2.230206013E0,9.073801041E-1
1.422689882E0,7.691388577E-2,-1.987530351E0,3.072090149E-1
1.440512087E0,1.766894758E-1,-1.522622585E0,-5.128574371E-1
1.458332399E0,2.783595920E-1,-1.064892530E0,-1.476963043E0
1.476159608E0,3.061060607E-1,-6.611783504E-1,-2.329010010E0
1.493980898E0,7.853180170E-2,-5.537493229E-1,-2.633931637E0
1.511809755E0,-1.587713510E-1,-4.834256172E-1,-2.571644783E0
1.529626710E0,-4.046917558E-1,-5.683119297E-1,-2.250315666E0
1.547454225E0,-7.196435332E-1,-7.119452953E-1,-1.559551239E0
1.565281434E0,-1.014166236E0,-8.531284332E-1,-1.366263390E0
1.583101442E0,-9.595564604E-1,-6.112380028E-1,-7.919330597E-1
1.600924319E0,-8.764443398E-1,-3.985230923E-1,-1.825189590E-1
1.618750124E0,-6.867674589E-1,5.083966255E-2,-1.078958511E-1
1.636573183E0,-4.135480523E-1,6.023142338E-1,-2.421112061E-1
1.654396364E0,-7.527077198E-2,8.322062492E-1,4.270744324E-2
1.672220216E0,1.434454918E-1,8.865575790E-1,6.312112808E-1
1.690043825E0,1.153784096E-1,6.511018276E-1,1.282702446E0
1.707867067E0,1.601944864E-1,2.695007324E-1,2.164189339E0
1.725692141E0,4.308038354E-1,4.490733147E-2,2.695746422E0
1.743515077E0,4.131532311E-1,-3.394513130E-1,3.175119400E0
1.761334901E0,1.143820882E-1,-7.084331512E-1,3.086564064E0
1.779162538E0,-4.352489710E-1,-5.365478992E-1,2.589805603E0
1.796986025E0,-5.804644227E-1,-2.914693356E-1,9.775629044E-1
1.814805177E0,6.687402725E-1,-3.395042419E-1,1.417948723E0
1.832633363E0,1.380576849E0,-1.917476892E0,4.260160446E0
1.850457460E0,4.429731369E-1,-4.195526123E0,5.697286606E0
1.868284364E0,-1.234774888E-1,-4.372142792E0,3.543521881E0
1.886104677E0,2.877524793E-1,-2.936423302E0,4.748563766E-1
1.903926943E0,5.603710413E-1,-2.256686687E0,-1.235032082E0
1.921753298E0,1.063380480E0,-2.059661388E0,-1.162060738E0
1.939570986E0,1.490079403E0,-1.840632439E0,-4.363965988E-1
1.957399599E0,1.735984325E0,-1.254344225E0,-6.852149963E-3
1.975222048E0,1.619216561E0,-7.558219433E-1,-1.516904831E-1
1.993048097E0,1.020788908E0,-5.742666721E-1,-9.788188934E-1
2.010869204E0,2.105804682E-1,-8.394069672E-1,-1.740566254E0
2.028695375E0,-1.614425778E-1,-1.032865047E0,-2.258014679E0
2.046513124E0,-2.459065020E-1,-1.244004726E0,-1.767836571E0
2.064349000E0,-1.747662425E-1,-1.354959488E0,-1.318387985E0
2.082164797E0,4.539826512E-2,-1.288898468E0,-1.149261475E0
2.099988649E0,4.348972440E-2,-1.487328768E0,-1.096902847E0
2.117812868E0,3.105023801E-1,-1.265569687E0,-1.459702492E0
2.135635012E0,8.955547810E-1,-8.062131405E-1,-1.679468632E0
2.153461062E0,9.367194772E-1,-8.656742573E-1,-1.591185093E0
2.171287538E0,9.894451499E-1,-7.398457527E-1,-1.561522007E0
2.189107667E0,1.157793522E0,-3.456401825E-1,-1.752688408E0
2.206931276E0,1.278815746E0,1.847565174E-1,-1.802639008E0
2.224754579E0,1.185655594E0,4.757010937E-1,-1.184426308E0
2.242568056E0,7.434572577E-1,5.631785393E-1,-9.544973373E-1
2.260401979E0,1.761679649E-1,5.781853199E-1,-5.393295288E-1
2.278224856E0,-6.105186045E-2,3.648030758E-1,6.359367371E-1
2.296050600E0,-4.125320017E-1,-3.714740276E-1,1.897360802E0
2.313872316E0,-7.336765528E-1,-1.165166140E0,2.924392700E0
2.331698183E0,-7.055759430E-1,-1.625474930E0,3.666785240E0
2.349516298E0,-9.118878245E-1,-9.416260719E-1,3.957650185E0
2.367347413E0,-1.146626592E0,2.781443596E-1,1.717002869E0
2.385168459E0,-2.795382738E-1,4.295635223E-1,1.506322861E0
2.402992678E0,6.513754129E-1,-9.726431370E-1,5.094446182E0
2.420815797E0,-1.514068842E-1,-3.160339594E0,7.162234306E0
2.438638735E0,-1.027707815E0,-3.691689014E0,5.139677048E0
2.456463014E0,-1.484447360E0,-2.557973862E0,9.451341629E-1
2.474285341E0,-1.380484343E0,-1.765571833E0,-9.581565857E-1
2.492110597E0,-1.077776432E0,-1.644917965E0,-8.328247070E-1
2.509933779E0,-8.868001699E-1,-2.082612991E0,1.648178101E-1
2.527757692E0,-3.365992308E-1,-2.103012800E0,5.470323563E-1
2.545581422E0,1.870426834E-1,-1.936170578E0,6.140470505E-1
2.563405519E0,2.828349173E-1,-1.969289064E0,6.852626801E-2
2.581223757E0,3.712573946E-1,-1.817977190E0,-6.210680008E-1
2.599051272E0,6.472963095E-1,-1.297863960E0,-1.493363380E0
2.616876527E0,7.420949340E-1,-8.928403854E-1,-2.198868752E0
2.634701479E0,4.856418371E-1,-6.984300613E-1,-2.762049675E0
2.652523317E0,2.678012252E-1,-5.594153404E-1,-3.076096058E0
2.670347597E0,-8.546090126E-2,-7.039766312E-1,-2.766946793E0
2.688172304E0,-4.358719885E-1,-9.859964848E-1,-2.653982639E0
2.705995058E0,-4.798690081E-1,-1.032792091E0,-1.900412083E0
2.723818361E0,-8.156579137E-1,-1.425773382E0,-1.298115253E0
2.741641969E0,-1.028097034E0,-1.533509254E0,-6.792850494E-1
2.759468690E0,-6.000939608E-1,-1.052407026E0,-7.715511322E-2
2.777285768E0,-4.852334261E-1,-5.284371376E-1,-1.284065247E-1
2.795112185E0,-6.049419045E-1,-3.757021427E-1,4.157161713E-1
2.812933107E0,-4.110586345E-1,-1.716854572E-1,1.337196350E0
2.830760927E0,-1.073676348E-1,8.278076649E-1,-6.293735504E-1
2.848584718E0,-2.817097902E-1,1.912360191E-1,7.921037674E-1
2.866407839E0,1.526277661E-1,3.141667843E-1,2.216927528E0
2.884232118E0,1.511708498E-1,3.618161678E-1,9.198875427E-1
2.902054201E0,3.442348242E-1,7.983446121E-1,1.229841232E0
2.919878725E0,-4.000852108E-1,7.365410328E-1,1.472316742E0
2.937704774E0,-5.529025793E-1,-4.097867012E-2,4.354400635E-1
2.955527101E0,7.010092139E-1,-9.288222790E-1,2.489559174E0
2.973350465E0,1.135124922E0,-2.454091549E0,5.898576736E0
2.991174562E0,2.083066702E-1,-3.617403984E0,6.180526733E0
3.008997682E0,2.509367466E-1,-2.505623102E0,3.521666527E0
3.026822207E0,7.200568318E-1,-1.487057686E0,1.510340691E0
3.044639833E0,9.464470148E-1,-1.363405466E0,-1.288223267E-1
3.062468996E0,1.598362923E0,-1.253227949E0,-7.111072540E-2
3.080287721E0,2.013205528E0,-1.250587225E0,7.804632187E-1
3.098116335E0,1.903269768E0,-1.034940243E0,6.209630966E-1
3.115940187E0,1.804779530E0,-5.893008709E-1,1.849298477E-1
3.133762941E0,1.532788754E0,-3.877022266E-1,-4.118766785E-1
3.151588503E0,5.809617043E-1,-8.842165470E-1,-1.026430130E0
3.169407350E0,-1.896501482E-1,-1.410623312E0,-1.340047836E0
3.187238954E0,-6.787035465E-1,-1.585941553E0,-1.912456989E0
3.205057924E0,-9.087947607E-1,-1.798673153E0,-2.215420723E0
3.222882143E0,-9.504923820E-1,-1.807976961E0,-2.286187172E0
3.240707216E0,-7.038943768E-1,-1.740124464E0,-2.468140602E0
3.258515321E0,-3.537301719E-1,-1.653699398E0,-2.158598900E0
3.276353761E0,5.347904563E-2,-1.492822170E0,-1.344161034E0
3.294176821E0,2.055293918E-1,-1.407825947E0,-1.114549637E0
3.312000734E0,5.937128663E-1,-8.454000950E-1,-1.713703156E0
3.329825564E0,1.043745518E0,-2.254953384E-1,-1.565065861E0
3.347643068E0,9.241644740E-1,6.074714661E-2,-1.352101326E0
3.365470704E0,6.360030770E-1,2.078633308E-1,-1.197259903E0
3.383292604E0,7.710167170E-1,5.738577843E-1,-6.276884079E-1
3.401119325E0,6.766753197E-1,4.519054890E-1,9.343147278E-1
3.418943239E0,3.617131114E-1,2.727260590E-1,1.787265778E0
3.436766603E0,2.786254883E-1,7.416486740E-3,2.635527611E0
3.454590700E0,6.434299052E-3,-6.649408340E-1,3.373784065E0
3.472414247E0,1.371296644E-1,-9.736602306E-1,3.718255043E0
3.490238345E0,-6.134927273E-1,2.079648972E-1,2.497524261E0
3.508061342E0,-6.306300759E-1,1.289791107E0,-1.768741608E-1
3.525887025E0,9.574753642E-1,1.642528296E0,6.452636719E-1
3.543707033E0,9.960973263E-1,-1.193713188E0,5.725573540E0
3.561533204E0,-8.697698712E-1,-4.039361477E0,8.256952286E0
3.579351442E0,-1.821728349E0,-3.976651669E0,4.043223381E0
3.597180360E0,-1.587234378E0,-2.377300739E0,2.237586975E-1
3.615004152E0,-1.646239877E0,-2.043307066E0,-1.009759903E0
3.632827882E0,-1.473936915E0,-2.268782139E0,-8.611278534E-1
3.650650942E0,-8.027499914E-1,-2.153529167E0,-3.954000473E-1
3.668474977E0,-1.276467294E-1,-2.158543825E0,-6.321620941E-2
3.686294191E0,4.422144592E-1,-2.315813065E0,4.861927032E-2
3.704122804E0,9.350662827E-1,-2.121523142E0,-3.382492065E-2
3.721945986E0,8.883603215E-1,-1.935744762E0,-7.632675171E-1
3.739769655E0,7.294785976E-1,-1.444457293E0,-1.766334534E0
3.757593690E0,7.813176513E-1,-8.140885830E-1,-2.649675846E0
3.775417604E0,4.457482100E-1,-4.509890079E-1,-3.372589111E0
3.793240663E0,1.610550135E-1,-2.720127106E-1,-3.845843315E0
3.811064638E0,8.933299780E-2,-3.459589481E-1,-2.559755802E0
3.828889467E0,-1.422527432E-2,-5.668227673E-1,-1.625676632E0
3.846711550E0,-3.133382797E-1,-7.756297588E-1,-8.959445953E-1
3.864535524E0,-7.914128304E-1,-1.010447979E0,-7.124004364E-1
3.882356874E0,-1.091150403E0,-1.065382004E0,-9.334983826E-1
3.900181887E0,-1.238620281E0,-9.375250340E-1,-6.516399384E-1
3.918008425E0,-1.288702726E0,-7.513942719E-1,-5.288715363E-1
3.935829714E0,-1.147414684E0,-5.198204517E-1,-3.199930191E-1
3.953655214E0,-6.604670286E-1,-3.648526669E-1,6.780719757E-1
3.971466615E0,-1.971767694E-1,-1.212067604E-1,1.696692467E0
3.989297243E0,3.372651339E-2,-1.511991024E-1,2.478876114E0
4.007125124E0,3.619874716E-1,-8.154749870E-2,2.703097343E0
4.024944032E0,6.222558618E-1,1.717772484E-1,2.917621613E0
4.042772890E0,7.069278955E-1,2.491078377E-1,2.627461433E0
4.060596620E0,1.675345600E-1,5.593156815E-1,2.268395424E0
4.078420107E0,5.666860342E-1,5.140905380E-1,1.187052727E0
4.096244020E0,1.695781708E0,-3.037698269E-1,2.455218315E0
4.114067567E0,2.153010130E0,-2.261308432E0,5.207482338E0
4.131890383E0,1.261170149E0,-4.219692230E0,6.611795425E0
4.149715944E0,6.784980297E-1,-3.876840115E0,3.897121429E0
4.167538698E0,1.018040419E0,-2.328320026E0,4.590911865E-1
4.185362611E0,1.517769098E0,-1.434989691E0,-1.225479126E0
4.203186403E0,1.857837677E0,-1.465078831E0,-1.097683907E0
4.221009523E0,1.856544256E0,-1.551075459E0,-2.805614471E-1
4.238832644E0,1.712860227E0,-1.276011705E0,-1.297645569E-1
4.256658327E0,1.187513351E0,-1.183206797E0,-2.223052979E-1
4.274481447E0,3.850341439E-1,-1.362569571E0,-8.147525787E-1
4.292299623E0,-1.180033684E-1,-1.559658289E0,-1.164945602E0
4.310128419E0,-4.882622063E-1,-1.818278551E0,-1.218858719E0
4.327952333E0,-4.148876071E-1,-1.805680513E0,-1.293946743E0
4.345771181E0,-5.763274431E-2,-1.501484394E0,-1.390655041E0
4.363599306E0,4.642021656E-2,-1.411788225E0,-1.485218525E0
4.381422975E0,1.360961199E-1,-1.410295010E0,-1.766369343E0
4.399247072E0,2.844408453E-1,-1.359019756E0,-1.885221481E0
4.417070680E0,3.905876875E-1,-1.197421551E0,-2.328989983E0
4.434892824E0,3.122794926E-1,-1.106420040E0,-2.680184364E0
4.452719362E0,3.952038288E-1,-9.435503483E-1,-2.564245701E0
4.470541750E0,5.332263112E-1,-7.418086529E-1,-2.207482815E0
4.488365602E0,7.600241899E-1,-4.654643536E-1,-1.162906647E0
4.506188905E0,9.032642841E-1,-1.836063862E-1,7.073116302E-2
4.524012819E0,9.284636974E-1,3.036637306E-1,6.070919037E-1
4.541835268E0,7.365027070E-1,7.290444374E-1,3.655891418E-1
4.559657594E0,3.794963360E-1,7.286281586E-1,7.123756409E-1
4.577478884E0,1.052715704E-1,2.138385773E-1,1.044100761E0
4.595302919E0,6.255879998E-2,-5.751831532E-1,2.399224281E0
4.613131288E0,4.942259938E-2,-1.169095516E0,4.001667023E0
4.630955018E0,-1.313315481E-1,-8.997366428E-1,4.461768150E0
4.648778200E0,-6.627936363E-1,7.462787628E-1,3.123604774E0
4.666600832E0,-5.586341023E-1,2.000624180E0,3.946237564E-1
4.684427126E0,-2.407716513E-1,2.227686882E0,4.453973770E-1
4.702249696E0,-6.761866063E-2,-2.355182171E-1,2.469733238E0
4.720073183E0,-2.525195777E-1,-2.576287031E0,5.150843620E0
4.737897096E0,-1.501718044E0,-4.104466438E0,4.397736549E0
4.755720949E0,-2.409351349E0,-3.482543945E0,4.741573334E-1
4.773544862E0,-2.294996977E0,-2.258344650E0,-1.777361870E0
4.791373476E0,-1.973474860E0,-1.428349018E0,-2.295156002E0
4.809191774E0,-1.315137506E0,-1.407342672E0,-9.859552383E-1
4.827015810E0,-4.352519512E-1,-1.716872215E0,3.727111816E-1
4.844838442E0,1.370706260E-1,-2.200154305E0,1.357059479E0
4.862663576E0,3.847496510E-1,-2.409811497E0,1.375209808E0
4.880481935E0,4.748414159E-1,-1.855390549E0,-1.310100555E-1
4.898304324E0,4.451557696E-1,-1.131842852E0,-1.922699928E0
4.916129884E0,2.383768559E-3,-8.938617706E-1,-3.437480450E0
4.933954897E0,-3.996908665E-1,-7.871115208E-1,-4.028354645E0
4.951783938E0,-4.688030481E-1,-7.532815933E-1,-3.595953941E0
4.969601259E0,-8.393509388E-1,-1.127795935E0,-2.562170029E0
4.987429140E0,-9.194825888E-1,-1.157614231E0,-1.615978718E0
5.005252077E0,-9.060139656E-1,-9.843614101E-1,-9.502840042E-1
5.023076356E0,-7.441620827E-1,-5.855321884E-1,-3.220834732E-1
5.040899660E0,-9.186085463E-1,-4.108798504E-1,7.823371887E-2
5.058723512E0,-1.075154543E0,-1.033859253E-1,2.862005234E-1
5.076546999E0,-1.050387621E0,2.742662430E-1,4.421873093E-1
5.094371034E0,-9.176796675E-1,6.304233074E-1,6.485404968E-1
5.112189882E0,-6.958189607E-1,6.933963299E-1,1.401626587E0
5.130017336E0,-5.036051869E-1,6.149072647E-1,1.899044991E0
5.147841737E0,-3.615458608E-1,5.996813774E-1,2.073725700E0
5.165666872E0,-1.376070082E-1,3.990509510E-1,2.327443123E0
5.183489442E0,1.376186609E-1,5.212044716E-2,2.511255264E0
5.201308534E0,2.949093580E-1,-3.933973312E-1,2.862264633E0
5.219136110E0,-2.035801411E-1,-6.298842430E-1,2.969022751E0
5.236960634E0,-8.317698240E-1,-1.677746773E-1,1.486547470E0
5.254784303E0,-1.788425744E-1,2.761960030E-1,4.493713379E-2
5.272608156E0,1.190788150E0,1.315858364E-1,1.423184395E0
5.290431093E0,1.229378462E0,-1.948976994E0,3.556237221E0
5.308255006E0,5.851092339E-1,-3.799025059E0,5.343591690E0
5.326078859E0,1.070809364E-2,-3.884473324E0,3.398336411E0
5.343897890E0,3.466132879E-1,-2.329261303E0,3.735208511E-1
5.361725954E0,7.595137954E-1,-1.496846199E0,-7.836046219E-1
5.379545045E0,1.153366804E0,-9.143638611E-1,-1.072030067E0
5.397373537E0,1.207215548E0,-6.713373661E-1,-5.963068008E-1
5.415196962E0,9.489372373E-1,-6.009030342E-1,-3.382081985E-1
5.433019717E0,3.356104493E-1,-8.711559772E-1,-3.833866119E-1
5.450844728E0,-3.938122988E-1,-1.100616217E0,-1.157895088E0
5.468669191E0,-9.615617394E-1,-1.259525537E0,-1.832656860E0
5.486492616E0,-1.219767451E0,-1.321020603E0,-2.168915749E0
5.504310732E0,-1.140330911E0,-1.286419153E0,-2.313049793E0
5.522139345E0,-6.646253467E-1,-9.714646339E-1,-1.852448940E0
5.539962831E0,-3.775737882E-1,-9.062333107E-1,-1.595597267E0
5.557786807E0,-1.180964112E-1,-9.047400951E-1,-1.688289165E0
5.575605532E0,1.955811679E-1,-7.358591557E-1,-1.684118271E0
5.593434084E0,5.203217864E-1,-5.747914314E-1,-1.783073902E0
5.611257753E0,7.053509951E-1,-4.793019295E-1,-1.392345905E0
5.629081727E0,7.298556566E-1,-4.422702789E-1,-9.134292603E-1
5.646900331E0,7.059293985E-1,-1.187019348E-1,-7.682228088E-1
5.664727480E0,7.150735855E-1,4.605996609E-1,-6.111278534E-1
5.682548464E0,3.908095062E-1,6.871118546E-1,-2.417249680E-1
5.700376161E0,3.326138258E-1,8.277027607E-1,1.055917740E-1
5.718195925E0,4.974304438E-1,9.496719837E-1,4.907760620E-1
5.736027040E0,6.563191414E-1,5.756905079E-1,1.466163635E0
5.753846194E0,9.161506891E-1,-2.681732178E-3,3.056462288E0
5.771672487E0,1.050831437E0,-5.697541237E-1,4.352149963E0
5.789490175E0,3.280874789E-1,5.340337753E-3,3.657724380E0
5.807313661E0,-6.212245822E-1,1.291961432E0,6.477785110E-1
5.825140932E0,1.041333899E-1,1.302536488E0,2.705793381E-1
5.842967104E0,7.857434750E-1,-9.818520546E-1,4.461777687E0
5.860788942E0,-3.966703117E-1,-3.530112982E0,6.848424911E0
5.878608339E0,-1.487915158E0,-3.622849464E0,4.370583534E0
5.896435487E0,-1.708640218E0,-2.055532217E0,2.894592285E-2
5.914261415E0,-2.023205757E0,-1.480735540E0,-2.137620449E0
5.932083681E0,-1.606182814E0,-1.392858267E0,-1.644986153E0
5.949907594E0,-9.879150391E-1,-1.729253769E0,-2.730054855E-1
5.967731447E0,-3.575851619E-1,-2.019517660E0,3.002920151E-1
5.985555299E0,4.027376771E-1,-2.125816345E0,7.966651917E-1
6.003378603E0,6.792506576E-1,-2.279237032E0,8.516626358E-1
6.021202333E0,7.498515844E-1,-1.969168663E0,-5.607509613E-2
6.039025758E0,8.108106256E-1,-1.370388269E0,-1.332588196E0
6.056848818E0,6.266579628E-1,-8.292298317E-1,-2.439486980E0
6.074674501E0,4.308397174E-1,-2.355768681E-1,-3.417838097E0
6.092496950E0,7.733583450E-2,-1.217789650E-1,-3.619123459E0
6.110316164E0,-1.467913538E-1,-2.554862499E-1,-2.908320904E0
6.128144655E0,-2.332979143E-1,-5.181338787E-1,-1.686329842E0
6.145967897E0,-5.995925665E-1,-9.424808025E-1,-6.630163193E-1
6.163791750E0,-7.156946659E-1,-9.541440010E-1,-4.162759781E-1
6.181615053E0,-6.050928235E-1,-7.409739494E-1,-2.987670898E-2
6.199439577E0,-4.831194580E-1,-4.514729977E-1,1.690530777E-1
6.217262453E0,-6.112771034E-1,-2.790460587E-1,-6.987857819E-2
6.235085451E0,-5.713023543E-1,1.585714817E-1,-4.446859360E-1
6.252911257E0,-6.490883827E-1,3.341233730E-1,-5.557413101E-1
6.270734132E0,-3.206506968E-1,5.238184929E-1,-3.713216782E-1
6.288557009E0,4.594126344E-2,3.803348541E-1,1.145336151E0
6.306380983E0,7.485616207E-2,8.539485931E-2,2.201498985E0
6.324204774E0,1.949649453E-1,1.428256035E-1,2.426241875E0
6.342028566E0,-2.591866851E-1,5.542206764E-1,2.264354706E0
6.359850770E0,8.569777012E-2,4.356129169E-1,1.351472855E0
6.377677004E0,1.112547517E0,-4.494254589E-1,2.900228500E0
6.395499513E0,1.319766760E0,-2.338045359E0,5.814177513E0
6.413318606E0,3.839294910E-1,-3.801677227E0,6.401358604E0
6.431145509E0,5.003151894E-1,-3.215626717E0,4.314516068E0
6.448971743E0,1.511450291E0,-1.967113853E0,2.413047791E0
6.466794069E0,2.017912149E0,-1.837954760E0,8.793640137E-1
6.484618104E0,2.426719189E0,-1.723683596E0,2.020263672E-1
6.502441103E0,2.456553698E0,-1.485053778E0,-6.621170044E-1
6.520265810E0,2.084300756E0,-1.198511124E0,-1.702647209E0
6.538088747E0,1.740142465E0,-6.307690144E-1,-2.080382347E0
6.555913026E0,1.291537285E0,-2.798502445E-1,-1.944417000E0
6.573736025E0,5.371423960E-1,-5.761032104E-1,-1.559986591E0
6.591559999E0,3.127771616E-2,-8.442296982E-1,-1.006402969E0
6.609383669E0,-2.774509788E-1,-9.431781769E-1,-9.768905640E-1
6.627207765E0,-5.039027333E-1,-1.092038870E0,-1.149465561E0
6.645029542E0,-5.424573421E-1,-1.077593803E0,-1.443589687E0
6.662854311E0,-3.691741824E-1,-9.739539623E-1,-1.657718658E0
6.680679384E0,-2.752688527E-1,-9.026963711E-1,-2.015402317E0
6.698502138E0,-1.895307750E-1,-9.529609680E-1,-2.242460251E0
6.716321413E0,8.150765300E-2,-8.878040314E-1,-2.077626705E0
6.734149294E0,3.315854669E-1,-8.704032898E-1,-2.003921032E0
6.751972841E0,5.429174900E-1,-7.910413742E-1,-1.707489967E0
6.769796815E0,7.459377050E-1,-3.768489361E-1,-1.530904293E0
6.787620058E0,1.021132350E0,2.655315399E-1,-9.934072495E-1
6.805444215E0,8.325439692E-1,7.577335835E-1,-8.438529968E-1
6.823268556E0,6.574879289E-1,1.092099190E0,-4.533748627E-1
6.841091432E0,5.701971054E-1,1.203766823E0,3.298072815E-1
6.858914430E0,4.858179092E-1,6.679146290E-1,1.893429756E0
6.876733888E0,4.011964202E-1,-9.798645973E-2,2.910855293E0
6.894562135E0,5.294144750E-1,-9.093551636E-1,3.988555908E0
6.912386232E0,2.225079536E-1,-9.560439587E-1,4.551120758E0
6.930209352E0,-5.605954528E-1,3.793931007E-2,1.773442268E0
6.948033388E0,-2.387710661E-2,5.650339127E-1,8.921709061E-1
6.965855898E0,1.545157731E-1,1.282000542E-2,3.591835976E0
6.983682009E0,-8.879738450E-1,-1.937472701E0,3.980690956E0
7.001504091E0,-1.199998379E0,-2.355309010E0,3.657444954E0
7.019323915E0,-1.589515328E0,-1.956795692E0,1.309748650E0
7.037151552E0,-1.847472429E0,-1.607569933E0,-4.987564087E-1
7.054975465E0,-1.592832088E0,-1.281548262E0,-8.733625412E-1
7.072798769E0,-1.177495241E0,-1.359362125E0,-3.424835205E-2
7.090622438E0,-8.144989014E-1,-1.585627556E0,5.944356918E-1
7.108441347E0,-4.126341045E-1,-1.814541340E0,8.266124725E-1
7.126270692E0,2.100014687E-2,-1.968956232E0,1.056196213E0
7.144081789E0,4.565393925E-1,-1.823766232E0,5.300273895E-1
7.161917116E0,6.333552599E-1,-1.438764334E0,-7.407026291E-1
7.179740541E0,7.571632862E-1,-9.757952690E-1,-1.861650467E0
7.197563784E0,6.059520245E-1,-4.975404739E-1,-3.039246559E0
7.215389223E0,2.843607664E-1,-2.167837620E-1,-3.788038254E0
7.233211855E0,-1.643668562E-1,-1.970865726E-1,-4.052498817E0
7.251035585E0,-4.406169057E-1,-3.506858349E-1,-3.652031898E0
7.268858217E0,-5.929017067E-1,-6.544358730E-1,-2.512127876E0
7.286683657E0,-9.091576934E-1,-1.008183956E0,-1.476130962E0
7.304506410E0,-1.008070946E0,-1.053681135E0,-1.035251617E0
7.322326356E0,-9.325948358E-1,-7.191588879E-1,-4.535608292E-1
7.340154054E0,-1.095488071E0,-4.552457333E-1,-2.945690155E-1
7.357974612E0,-1.078714967E0,6.266570091E-2,-2.725830078E-1
7.375803957E0,-8.787248135E-1,4.098823071E-1,8.772945404E-2
7.393624940E0,-5.372713804E-1,6.524090767E-1,1.058768272E0
7.411444154E0,-3.070702851E-1,5.584926605E-1,2.157304764E0
7.429270814E0,-1.452435255E-1,4.636492729E-1,2.561277390E0
7.447097109E0,-1.181582510E-1,3.284263611E-1,2.936072350E0
7.464919313E0,-8.596721292E-2,1.728470325E-1,2.653550148E0
7.482731630E0,5.830138922E-3,3.150410652E-1,2.882144928E0
7.500566286E0,-7.275966406E-1,5.981328487E-1,2.077855110E0
7.518387758E0,-1.731100380E-1,5.240147114E-1,6.603860855E-1
7.536216799E0,1.464520097E0,2.876803875E-1,2.243255615E0
7.554038087E0,1.493800879E0,-1.874308109E0,5.107263565E0
7.571859804E0,6.867582798E-1,-3.749945879E0,6.324027061E0
7.589681459E0,1.885471940E-1,-3.437958479E0,3.459748268E0
7.607508546E0,4.763932228E-1,-2.220233202E0,6.450996399E-1
7.625328309E0,6.085475683E-1,-1.943144560E0,-3.293590546E-1
7.643151003E0,7.750761509E-1,-1.749222517E0,-3.780155182E-1
7.660978273E0,1.042064309E0,-1.218120813E0,-6.113348007E-1
7.678804323E0,1.191754341E0,-5.638394356E-1,-9.762744904E-1
7.696627077E0,8.243178129E-1,-4.098455906E-1,-1.136589050E0
7.714450319E0,-5.235660076E-2,-7.529506683E-1,-1.952148438E0
7.732275087E0,-4.684494734E-1,-7.838289738E-1,-2.521288872E0
7.750097841E0,-6.218801737E-1,-8.066735268E-1,-2.858734608E0
7.767921815E0,-6.046149731E-1,-9.214484692E-1,-2.374691963E0
7.785744753E0,-5.784595013E-1,-1.095674276E0,-1.963057995E0
7.803568788E0,-3.391292989E-1,-1.080656052E0,-2.056572437E0
7.821392213E0,1.916885376E-2,-9.339821339E-1,-1.915327072E0
7.839216310E0,3.024469912E-1,-8.013987541E-1,-2.110868454E0
7.857039369E0,6.496599317E-1,-8.016002178E-1,-1.467643261E0
7.874857484E0,7.035363317E-1,-9.751069546E-1,-8.008623123E-1
7.892688051E0,6.395657659E-1,-9.677436352E-1,-6.120977402E-1
7.910510989E0,7.226461768E-1,-3.655886650E-1,-9.715309143E-1
7.928330202E0,7.478331327E-1,2.649085522E-1,-8.045034409E-1
7.946157838E0,6.808460951E-1,7.927842140E-1,-7.942733765E-1
7.963980409E0,5.628392696E-1,1.214693785E0,-1.657743454E-1
7.981806581E0,3.843777180E-1,1.245571852E0,7.398824692E-1
7.999625856E0,1.727228165E-1,7.892634869E-1,1.856700897E0
8.017452516E0,6.102169305E-2,8.899950981E-2,2.715667725E0
8.035276857E0,1.853888631E-1,-4.004733562E-1,3.628761292E0
8.053099977E0,-2.373212576E-2,-2.920145988E-1,3.848219872E0
8.070923280E0,-8.379518986E-1,1.210548878E0,2.104602814E0
8.088747255E0,-2.040330917E-1,1.856607199E0,5.673923492E-1
8.106565797E0,9.941657782E-1,8.920915127E-1,3.891942024E0
8.124394716E0,2.371848673E-1,-1.997234583E0,6.811203957E0
8.142217653E0,-1.226234555E0,-3.219064474E0,5.556626320E0
8.160041689E0,-1.530202150E0,-1.926280737E0,1.423393250E0
8.177864198E0,-2.018135071E0,-1.201922178E0,-1.613497257E0
8.195689149E0,-2.282757282E0,-1.193045378E0,-2.617130280E0
8.213513735E0,-1.775958776E0,-1.539467096E0,-1.225617409E0
8.231332704E0,-1.219231367E0,-1.906379938E0,-1.035957336E-1
8.249159853E0,-9.283832908E-1,-2.094471931E0,-6.853961945E-2
8.266983583E0,-4.335549176E-1,-2.015668631E0,2.693948746E-1
8.284806764E0,-2.103593200E-1,-1.961725712E0,-4.091453552E-2
8.302630495E0,-1.119478345E-1,-1.799326897E0,-7.033138275E-1
8.320454469E0,1.200360656E-1,-1.337411642E0,-1.323123932E0
8.338281495E0,2.971335053E-1,-9.248521328E-1,-2.138597012E0
8.356101198E0,5.178415775E-1,-2.993671894E-1,-2.786234856E0
8.373923646E0,4.670892656E-1,8.648657799E-2,-3.231528759E0
8.391750368E0,1.637309492E-1,-1.585149765E-2,-2.881205559E0
8.409568483E0,-2.273577601E-1,-2.575459480E-1,-2.499202251E0
8.427394655E0,-5.079467893E-1,-5.829052925E-1,-1.591059685E0
8.445220216E0,-5.075528026E-1,-6.901812553E-1,-8.246307373E-1
8.463044253E0,-2.198695689E-1,-3.884832859E-1,-4.690818787E-1
8.480866274E0,-1.299456060E-1,-2.438926697E-2,-2.156000137E-1
8.498691164E0,-2.257361561E-1,1.654601097E-2,2.316293716E-1
8.516514345E0,-3.287704587E-1,2.676835060E-1,2.273168564E-1
8.534334291E0,-4.017303884E-1,5.021679401E-1,1.896057129E-1
8.552161867E0,-2.520861626E-1,5.821602345E-1,6.240139008E-1
8.569984743E0,1.186724305E-1,4.586334229E-1,1.857564926E0
8.587808961E0,4.131317735E-1,3.193404675E-1,2.703306198E0
8.605632021E0,3.793962002E-1,-1.928308010E-1,3.348126411E0
8.623456544E0,-1.037486196E-1,-5.851125717E-2,3.366253853E0
8.641274782E0,-3.208941221E-2,2.009720802E-1,1.698018074E0
8.659102907E0,8.431898952E-1,-1.739599705E-1,2.369802475E0
8.676926942E0,1.473823547E0,-1.214890718E0,4.224395752E0
8.694750612E0,1.133577824E0,-2.612008333E0,4.990005493E0
8.712573671E0,1.126003027E0,-2.481350660E0,3.820017815E0
8.730397585E0,1.300988674E0,-1.715636253E0,1.014742851E0
8.748221376E0,1.602569342E0,-1.481691122E0,-5.250272751E-1
8.766045289E0,2.209068298E0,-1.069124937E0,-8.259840012E-1
8.783867312E0,2.291379690E0,-8.080499172E-1,-6.289424896E-1
8.801693361E0,2.009902239E0,-5.592947006E-1,-5.998516083E-1
8.819510805E0,1.572196245E0,-4.041433334E-1,-7.957553864E-1
8.837335695E0,9.131972790E-1,-7.182376385E-1,-8.184051514E-1
8.855161806E0,2.198308110E-1,-1.031216383E0,-1.504007816E0
8.872987673E0,-2.238960862E-1,-1.234182835E0,-2.071588039E0
8.890810365E0,-3.271980584E-1,-1.187700987E0,-2.639806271E0
8.908633852E0,-2.148793042E-1,-9.681260586E-1,-3.031777382E0
8.926457338E0,7.731467485E-3,-8.237068653E-1,-3.206009388E0
8.944284792E0,1.665847301E-1,-8.077659607E-1,-3.074148655E0
8.962103761E0,1.768241227E-1,-9.141845703E-1,-2.813198090E0
8.979929567E0,1.821374297E-1,-8.437633514E-1,-2.786692619E0
8.997751833E0,2.360632420E-1,-8.988094330E-1,-2.403185368E0
9.015575319E0,4.309266508E-1,-7.615289688E-1,-1.654937744E0
9.033399171E0,5.357895494E-1,-2.894668579E-1,-8.316812515E-1
9.051223024E0,3.950113654E-1,1.133456230E-1,-3.561973572E-1
9.069046083E0,5.153943896E-1,7.186267376E-1,2.908153534E-1
9.086869021E0,3.826007545E-1,8.702762127E-1,1.028246880E0
9.104694460E0,6.405207515E-2,8.064727783E-1,1.607897758E0
9.122510683E0,-1.783120260E-2,6.068413258E-1,2.387453079E0
9.140336305E0,-1.406355053E-1,4.796266556E-3,3.078354836E0
9.158165224E0,-4.982085526E-2,-5.185520649E-1,3.679918289E0
9.175987124E0,-2.157250196E-1,1.253075600E-1,3.640213013E0
9.193811952E0,-6.999025941E-1,1.607055664E0,1.505785942E0
9.211634706E0,1.821709573E-1,1.868143797E0,9.267444611E-1
9.229459108E0,1.043543100E0,1.751627922E-1,4.381276131E0
9.247286073E0,1.891211420E-1,-2.546051264E0,7.111351967E0
9.265105166E0,-8.690841794E-1,-3.604225636E0,5.920896530E0
9.282930483E0,-9.989932775E-1,-2.014268398E0,1.804289818E0
9.300752870E0,-1.428771138E0,-1.237375259E0,-1.330230713E0
9.318576845E0,-1.824724674E0,-1.059680939E0,-2.787107944E0
9.336400514E0,-1.686098576E0,-1.347852945E0,-1.927543640E0
9.354223818E0,-1.208098173E0,-1.776038885E0,-8.464527130E-1
9.372047548E0,-6.741294861E-1,-2.043684244E0,-3.221006393E-1
9.389870180E0,-1.718830317E-1,-2.241896629E0,-7.791614532E-2
9.407691408E0,1.978145540E-1,-2.286671162E0,-5.801486969E-2
9.425518129E0,3.602777719E-1,-2.169223547E0,-3.936271667E-1
9.443349062E0,3.473271430E-1,-1.733898759E0,-1.317363739E0
9.461165102E0,3.319196403E-1,-1.090107918E0,-2.225276470E0
9.478989503E0,3.278351426E-1,-4.706418514E-1,-2.857977867E0
9.496812502E0,2.101880312E-1,-2.498316765E-2,-3.259921551E0
9.514635988E0,-5.875506252E-2,-5.318927765E-2,-3.214987278E0
9.532459901E0,-4.233162999E-1,-4.084460735E-1,-2.219541550E0
9.550287782E0,-5.664486885E-1,-5.315926075E-1,-1.727581978E0
9.568106569E0,-4.493984878E-1,-2.540936470E-1,-1.547964573E0
9.585930544E0,-3.679439127E-1,-3.455162048E-3,-1.051688194E0
9.603754274E0,-3.618966639E-1,1.537792683E-1,-3.602666855E-1
9.621577760E0,-4.394068718E-1,3.497343063E-1,-8.662033081E-2
9.639396425E0,-4.122352004E-1,6.383469105E-1,-5.294895172E-2
9.657224733E0,-2.515843809E-1,8.641307354E-1,2.876930237E-1
9.675047304E0,-9.445145726E-2,8.886363506E-1,1.403790474E0
9.692872743E0,1.641597450E-1,8.962824345E-1,2.330687523E0
9.710696413E0,3.539192677E-1,7.564976215E-1,2.769034386E0
9.728517946E0,3.673616052E-1,4.476394653E-1,2.830322266E0
9.746349977E0,2.965205312E-1,1.460981369E-1,2.580125809E0
9.764166688E0,-1.466874182E-1,6.729302406E-1,2.433216095E0
9.781989626E0,1.017702520E-1,8.858988285E-1,6.980819702E-1
9.799813539E0,1.725489020E0,8.205778599E-1,6.774559021E-1
9.817636904E0,2.553625107E0,-1.333533287E0,5.290182114E0
9.835461183E0,1.285678864E0,-4.246951103E0,8.390998840E0
9.853286684E0,4.898640513E-1,-4.209175110E0,4.973078728E0
9.871107912E0,1.036916018E0,-2.329869032E0,1.437432289E0
9.888931215E0,9.704076052E-1,-1.694491148E0,-8.625240326E-1
9.906755067E0,1.113623619E0,-1.391739130E0,-1.519529343E0
9.924578432E0,1.493097782E0,-9.327311516E-1,-1.219892502E0
9.942397401E0,1.570399642E0,-6.136734486E-1,-9.576644897E-1
9.960224551E0,1.448915243E0,-3.242852688E-1,-1.268476486E0
9.978050661E0,7.642399073E-1,-4.627327919E-1,-2.047239304E0
9.995871522E0,1.189726591E-2,-7.338182926E-1,-2.669191360E0
1.001369757E1,-5.018055439E-1,-1.055738211E0,-2.768318653E0
1.003151996E1,-7.989755273E-1,-1.324468374E0,-2.957658768E0
1.004934003E1,-7.466645241E-1,-1.264208317E0,-3.024562359E0
1.006716687E1,-4.600292444E-1,-1.143993139E0,-2.922760963E0
1.008499060E1,-3.747044504E-2,-1.027638197E0,-2.259101391E0
1.010281427E1,-3.150631487E-2,-1.273112059E0,-1.786123276E0
1.012063770E1,1.541945189E-1,-1.150007010E0,-1.619912624E0
1.013846076E1,4.936035573E-1,-6.502544880E-1,-1.660562992E0
1.015628681E1,5.464562774E-1,-5.358655453E-1,-1.107153893E0
1.017410065E1,6.501289606E-1,-9.653496742E-2,-4.832410812E-1
1.019193415E1,6.064264178E-1,3.968286514E-1,-2.235269547E-1
1.020975641E1,3.845241070E-1,8.308360577E-1,8.541584015E-2
1.022757898E1,2.851296961E-1,1.191433668E0,4.655857086E-1
1.024540277E1,3.112306893E-1,1.494578123E0,1.219109535E0
1.026322540E1,1.284083575E-1,1.147054911E0,1.937005043E0
1.028105048E1,-1.066988409E-1,3.642370701E-1,2.329016685E0
1.029887219E1,8.857575059E-2,-4.379091263E-1,3.445763588E0
1.031668628E1,-7.467086613E-2,-2.269818783E-1,4.244540215E0
1.033452057E1,-8.405088186E-1,1.227757931E0,1.814396858E0
1.035234863E1,1.456833780E-1,2.062259912E0,4.241542816E-1
1.037016748E1,1.144346833E0,8.032202721E-1,3.674988747E0
1.038799109E1,6.332334876E-1,-1.807866096E0,6.695385933E0
1.040581043E1,-6.504664421E-1,-3.124775887E0,6.013800621E0
1.042363788E1,-1.161417842E0,-1.939520717E0,1.686740875E0
1.044146179E1,-1.604704738E0,-1.159648657E0,-1.451647758E0
1.045928601E1,-2.141209126E0,-1.260354757E0,-2.465593338E0
1.047710913E1,-1.961478233E0,-1.764372826E0,-1.101926804E0
1.049493073E1,-1.385515809E0,-2.217176914E0,1.835155487E-2
1.051275720E1,-7.337641716E-1,-2.472084284E0,5.519828796E-1
1.053057953E1,-2.677437961E-1,-2.681931734E0,5.636911392E-1
1.054840344E1,-3.696610406E-2,-2.559038162E0,1.116847992E-1
1.056622650E1,8.905556798E-2,-2.081318378E0,-1.159243584E0
1.058405011E1,8.102454245E-2,-1.438446760E0,-2.352578640E0
1.060187274E1,5.441249534E-2,-7.944586277E-1,-3.327899933E0
1.061969446E1,-5.202117935E-2,-2.767744064E-1,-4.168497086E0
1.063751605E1,-1.069254950E-1,-3.743481636E-2,-4.073024750E0
1.065534870E1,-2.396574020E-1,-2.702634335E-1,-2.814343452E0
1.067316791E1,-5.037810802E-1,-5.611133575E-1,-1.992600441E0
1.069099164E1,-7.245968580E-1,-5.364813805E-1,-1.781203270E0
1.070881464E1,-6.333233118E-1,-1.847832203E-1,-1.925301075E0
1.072663727E1,-3.467670083E-1,3.269715309E-1,-1.439840317E0
1.074446326E1,-4.687590003E-1,2.831590176E-1,-3.184928894E-1
1.076228607E1,-5.259822011E-1,4.535541534E-1,6.468725204E-1
1.078010870E1,-5.820957422E-1,8.596003056E-1,2.132520676E-1
1.079793189E1,-4.038296640E-1,1.293129921E0,3.094100952E-2
1.081575733E1,-2.495083511E-1,1.061215162E0,1.378184319E0
1.083358026E1,-1.334567070E-1,7.317168713E-1,2.641201019E0
1.085140320E1,3.903082013E-2,6.337537766E-1,3.162096024E0
1.086922669E1,2.516204119E-2,3.932805061E-1,2.830191612E0
1.088705048E1,-1.410532892E-1,3.938946724E-1,2.958773613E0
1.090487311E1,-4.682127535E-1,7.456994057E-1,2.362457275E0
1.092268622E1,4.287845492E-1,6.970052719E-1,1.749320030E0
1.094051624E1,1.917867541E0,4.322512150E-1,3.456825256E0
1.095834626E1,1.945965886E0,-1.173470020E0,5.627829552E0
1.097617114E1,1.128110409E0,-2.213442802E0,5.052707672E0
1.099399140E1,6.732124686E-1,-1.819068313E0,2.109914780E0
1.101181513E1,1.439690590E-1,-1.564109802E0,-3.440446854E-1
1.102965241E1,1.732176542E-2,-1.684814692E0,-1.807421684E0
1.104746253E1,9.008671641E-1,-1.461828470E0,-1.335802078E0
1.106528571E1,1.532560587E0,-1.431645870E0,-2.381076813E-1
1.108310932E1,1.785818815E0,-9.755818844E-1,1.220846176E-1
1.110093274E1,1.686433315E0,-5.127701759E-1,1.590185165E-1
1.111875397E1,9.966145158E-1,-2.566063404E-1,-9.072303772E-1
1.113657953E1,1.237769127E-1,-3.135898113E-1,-2.139375210E0
1.115440650E1,-3.683265150E-1,-4.921755791E-1,-2.826588631E0
1.117222223E1,-6.668693423E-1,-7.110686302E-1,-2.983778477E0
1.119005097E1,-7.009093761E-1,-9.389142990E-1,-2.934038162E0
1.120787262E1,-6.781531572E-1,-1.016181946E0,-2.702446461E0
1.122569892E1,-7.246904373E-1,-1.120350361E0,-2.655622959E0
1.124352136E1,-7.207070589E-1,-1.041587114E0,-3.121432781E0
1.126134900E1,-3.487856090E-1,-7.017390728E-1,-3.325485229E0
1.127916785E1,1.169301271E-1,-4.422056675E-1,-2.663214684E0
1.129699182E1,4.504905343E-1,-1.798269749E-1,-1.655023575E0
1.131481549E1,4.451319873E-1,-4.776477814E-2,-7.525396347E-1
1.133263904E1,5.052220821E-1,3.044309616E-1,-2.952470779E-1
1.135046192E1,4.105051160E-1,7.337846756E-1,-1.604766846E-1
1.136828552E1,7.007107139E-2,9.674963951E-1,4.800987244E-2
1.138610510E1,-1.523210555E-1,1.114446402E0,8.956499100E-1
1.140393311E1,-1.779078692E-1,9.964888096E-1,2.072136879E0
1.142175617E1,4.466776550E-2,6.199238300E-1,3.335898399E0
1.143957630E1,3.064748049E-1,3.189527988E-1,4.465091705E0
1.145740363E1,6.247317791E-1,4.918735027E-1,5.187870026E0
1.147522644E1,5.169410110E-1,1.141415358E0,5.045272827E0
1.149305030E1,-2.895899117E-1,2.960282803E0,2.716401100E0
1.151087433E1,-3.427262306E-1,3.496425152E0,-3.505973816E-1
1.152869867E1,-4.064674973E-1,1.030279160E0,1.425075531E0
1.154652161E1,-7.690055370E-1,-2.595691919E0,4.354096413E0
1.156434876E1,-1.742273569E0,-4.824539661E0,4.791720390E0
1.158216815E1,-2.260632753E0,-4.334156990E0,1.324318886E0
1.159999182E1,-1.931905866E0,-2.793202639E0,-1.534168720E0
1.161781568E1,-1.693012834E0,-2.020832062E0,-2.555477619E0
1.163563544E1,-1.140997052E0,-2.012260199E0,-1.131479263E0
1.165346558E1,-4.028405622E-2,-1.999187589E0,6.617813110E-1
1.167128552E1,1.206432104E0,-1.670051336E0,1.872063637E0
1.168910980E1,2.053010702E0,-1.129796267E0,1.535629272E0
1.170693262E1,2.034160137E0,-5.006899834E-1,-2.728328705E-1
1.172475653E1,1.610987663E0,-4.527640343E-2,-2.129371166E0
1.174257996E1,7.879813313E-1,2.306725979E-1,-3.900291443E0
1.176040369E1,5.599483848E-2,1.555714607E-1,-4.804004192E0
1.177822687E1,-4.372372925E-1,7.398462296E-2,-5.022727013E0
1.179605078E1,-6.898923516E-1,-1.739828587E-1,-4.217940807E0
1.181387317E1,-8.079144955E-1,-4.622735977E-1,-3.161553860E0
1.183169885E1,-9.505159855E-1,-7.286436558E-1,-2.110505104E0
1.184951624E1,-1.174296379E0,-1.039799452E0,-1.499803066E0
1.186734851E1,-1.156314135E0,-7.720305920E-1,-8.991470337E-1
1.188516724E1,-9.106436372E-1,3.502607346E-3,-5.060596466E-1
1.190299323E1,-5.067844391E-1,8.396482468E-1,-5.317411423E-1
1.192081519E1,-1.086428165E-1,1.410997868E0,1.110057831E-1
1.193863379E1,2.348024845E-1,1.437002659E0,2.098266602E0
1.195646228E1,4.625235796E-1,1.327397823E0,3.214913368E0
1.197428601E1,8.563079834E-1,1.288761377E0,3.979705811E0
1.199210901E1,8.722819090E-1,8.345692158E-1,4.161820412E0
1.200993268E1,5.543748140E-1,6.540935040E-1,3.717215538E0
1.202775635E1,-3.207517862E-1,8.245489597E-1,2.197396278E0
1.204557990E1,1.484368742E-1,3.726284504E-1,3.147268295E-1
1.206340326E1,1.400485396E0,-6.407163143E-1,2.621939659E0
1.208122693E1,7.854669094E-1,-3.724620581E0,5.887928009E0
1.209905042E1,-2.485904247E-1,-5.118700981E0,5.742456436E0
1.211687311E1,1.437560618E-1,-3.345193386E0,2.106453896E0
1.213469812E1,1.003131270E0,-1.732329130E0,-2.919816971E-1
1.215252094E1,1.822766423E0,-7.374854088E-1,-1.212942123E0
1.217033972E1,2.652370453E0,2.534890175E-2,-6.814460754E-1
1.218816815E1,2.834618092E0,4.311993122E-1,-4.211797714E-1
1.220599127E1,2.546756506E0,7.926182747E-1,-8.884763718E-1
1.222381500E1,1.637765408E0,5.197844505E-1,-1.414619446E0
1.224163819E1,2.984842360E-1,-4.036436081E-1,-1.861314774E0
1.225946100E1,-5.527271032E-1,-9.309899807E-1,-2.568548203E0
1.227728723E1,-1.010635376E0,-1.313441515E0,-3.033963680E0
1.229510797E1,-1.083261490E0,-1.482125759E0,-3.147843838E0
1.231293366E1,-1.023235321E0,-1.508869886E0,-2.789266586E0
1.233075617E1,-1.091977954E0,-1.548955441E0,-3.133385181E0
1.234857892E1,-7.349991798E-1,-1.209925890E0,-3.314221859E0
1.236640302E1,-1.595339775E-1,-7.830250263E-1,-3.209613323E0
1.238422638E1,4.457948208E-1,-3.569483757E-1,-2.480640888E0
1.240205029E1,8.771158457E-1,-2.566170692E-2,-1.364318848E0
1.241987183E1,9.808514714E-1,3.270063400E-1,-8.474750519E-1
1.243769794E1,1.269061327E0,9.692332745E-1,-5.852260590E-1
1.245552033E1,1.286720872E0,1.374040842E0,3.638973236E-1
1.247333954E1,7.837016582E-1,1.305177689E0,1.398856163E0
1.249116596E1,4.265573323E-1,1.395906925E0,2.050331116E0
1.250899194E1,6.736554205E-2,1.013058186E0,2.430690765E0
1.252681458E1,-3.607332110E-1,-1.086521149E-2,3.404477119E0
1.254463794E1,-3.354595304E-1,-7.020254135E-1,5.052933693E0
1.256246106E1,-4.841890335E-1,-1.779148579E-1,4.914646149E0
1.258028620E1,-7.563170195E-1,1.544289589E0,2.422868729E0
1.259810938E1,1.153505966E-1,2.541898966E0,9.254035950E-1
1.261593115E1,3.990188837E-1,8.280615807E-1,3.278337479E0
1.263375519E1,-6.515230536E-1,-2.119590998E0,5.317220688E0
1.265157910E1,-1.686010480E0,-3.068085194E0,3.963449478E0
1.266940216E1,-2.374312639E0,-2.179058075E0,2.344846725E-1
1.268722602E1,-2.556409359E0,-1.745519638E0,-1.751370907E0
1.270504285E1,-2.274073124E0,-1.915164113E0,-1.264597893E0
1.272287592E1,-1.362985253E0,-2.128217697E0,2.240581512E-1
1.274069702E1,-5.248469114E-1,-2.322561264E0,8.149900436E-1
1.275852020E1,2.881452739E-1,-2.451960087E0,1.479900360E0
1.277634937E1,9.753289819E-1,-2.251444578E0,1.206496239E0
1.279416553E1,1.170788050E0,-1.724487066E0,-4.129390717E-1
1.281199152E1,1.367579937E0,-9.039559364E-1,-2.171660900E0
1.282981397E1,1.202984452E0,-2.893075943E-1,-3.914709568E0
1.284763672E1,5.306245089E-1,-1.643261909E-1,-5.137636185E0
1.286546057E1,2.546161413E-3,-2.051787376E-1,-5.593402386E0
1.288328742E1,-2.002959847E-1,-1.892876625E-1,-4.935112953E0
1.290110761E1,-3.866800666E-1,-3.299612999E-1,-3.842107296E0
1.291893079E1,-7.410966754E-1,-6.645998955E-1,-2.994834900E0
1.293674982E1,-8.614686131E-1,-7.698636055E-1,-2.425397873E0
1.295457807E1,-6.535505652E-1,-3.902189732E-1,-1.924399853E0
1.297240174E1,-5.365706682E-1,2.405636311E-1,-6.922035217E-1
1.299022473E1,-9.100868702E-1,4.532372952E-1,2.021522522E-1
1.300804840E1,-7.432265282E-1,1.094946384E0,7.759733200E-1
1.302587085E1,-1.631642580E-1,1.719403982E0,1.786396980E0
1.304369684E1,1.208723187E-1,1.715580463E0,3.231328964E0
1.306151837E1,6.133216619E-1,1.713491917E0,4.570076942E0
1.307933881E1,8.920806050E-1,1.525307894E0,5.448311806E0
1.309716583E1,6.882892847E-1,1.182403803E0,4.164529800E0
1.311498969E1,1.891416311E-1,8.105504513E-1,3.318827629E0
1.313281250E1,-3.626129627E-1,8.342792988E-1,1.508978844E0
1.315063623E1,4.022338688E-1,7.455120087E-1,-2.392578125E-1
1.316845490E1,1.557891607E0,-6.376860142E-1,1.907279015E0
1.318628796E1,9.023295641E-1,-3.811972857E0,4.849773407E0
1.320410633E1,-4.094525874E-1,-5.405199051E0,4.759291649E0
1.322193006E1,-4.275548160E-1,-3.624416113E0,7.798881531E-1
1.323974964E1,4.096178412E-1,-1.820636511E0,-1.558299065E0
1.325757263E1,1.189866304E0,-9.331035614E-1,-1.885862350E0
1.327540149E1,1.876376390E0,-6.266546249E-1,-1.215906143E-1
1.329322406E1,2.131854296E0,-2.868280411E-1,1.026566505E0
1.331104736E1,2.196293354E0,2.425928116E-1,9.902362823E-1
1.332887012E1,1.809275389E0,5.182650089E-1,2.531929016E-1
1.334669507E1,7.528899312E-1,1.142024994E-1,-1.188270569E0
1.336451795E1,3.427791595E-2,-2.141902447E-1,-2.236871719E0
1.338233484E1,-3.354495168E-1,-4.802129269E-1,-3.028431892E0
1.340016498E1,-6.168444157E-1,-7.544252872E-1,-3.416165352E0
1.341798780E1,-6.301015615E-1,-8.469312191E-1,-3.551863194E0
1.343581183E1,-5.251414180E-1,-7.562911510E-1,-3.682169437E0
1.345363501E1,-6.196057796E-1,-1.008533239E0,-3.288089275E0
1.347145398E1,-5.868813992E-1,-9.930450916E-1,-3.168061733E0
1.348926947E1,-2.602664828E-1,-7.127866745E-1,-2.908044338E0
1.350710651E1,1.112794429E-1,-4.740486145E-1,-1.892781734E0
1.352491712E1,6.446238756E-1,-3.045678139E-2,-5.486268997E-1
1.354275226E1,1.081568837E0,6.324179173E-1,5.006189346E-1
1.356057556E1,8.745135069E-1,1.000076771E0,8.820772171E-1
1.357840485E1,5.329316854E-1,1.357479572E0,1.173299789E0
1.359622260E1,1.173168868E-1,1.593567371E0,1.420910835E0
1.361404651E1,-5.571266264E-2,1.543431759E0,1.781970978E0
1.363185639E1,-2.391568124E-1,6.910932064E-1,2.972023964E0
1.364969434E1,-3.658888042E-1,-1.982760429E-2,4.172669411E0
1.366751648E1,-8.725238442E-1,7.013363838E-1,4.294351578E0
1.368533655E1,-9.704937935E-1,1.918348312E0,1.542682648E0
1.370315833E1,5.738703012E-1,2.078741550E0,2.532338142E0
1.372098548E1,6.527202129E-1,-6.230745316E-1,6.131093979E0
1.373881153E1,-4.811352193E-1,-3.180487871E0,7.924740791E0
1.375663379E1,-1.595762730E0,-2.839983225E0,3.531779289E0
1.377445679E1,-1.846845269E0,-1.357644081E0,-8.300123215E-1
1.379228461E1,-2.244720936E0,-8.803167343E-1,-3.239885807E0
1.381010407E1,-2.176413298E0,-1.401874542E0,-2.431318760E0
1.382792786E1,-1.376941800E0,-1.960831881E0,-5.109643936E-1
1.384575092E1,-9.458615184E-1,-2.528530836E0,3.314275742E-1
1.386357453E1,-5.765376687E-1,-2.975542068E0,8.421239853E-1
1.388139765E1,-3.453661501E-1,-3.107044697E0,4.556274414E-1
1.389922125E1,-1.125454977E-1,-2.709896088E0,-7.332248688E-1
1.391704456E1,-5.247005448E-2,-2.052603722E0,-2.023469448E0
1.393486249E1,-9.212743491E-2,-1.267374277E0,-3.451776028E0
1.395269263E1,-2.822826803E-2,-5.010666847E-1,-4.484017372E0
1.397051550E1,1.374171078E-1,7.408213615E-2,-4.792222023E0
1.398833435E1,6.590925157E-2,9.796047211E-2,-4.111055374E0
1.400616174E1,-1.419250369E-1,-2.396416664E-1,-2.730692863E0
1.402398401E1,-1.392827630E-1,-2.551212311E-1,-1.812389374E0
1.404181055E1,-2.893090248E-1,-2.781376839E-1,-1.322921753E0
1.405962738E1,-3.870306015E-1,-5.423760414E-2,-6.380748749E-1
1.407745569E1,-4.058204889E-1,6.340949535E-1,-4.192037582E-1
1.409528229E1,-2.609705329E-1,1.448532343E0,-6.238012314E-1
1.411310272E1,-9.608088434E-2,1.937646627E0,-2.880611420E-1
1.413092536E1,2.324024737E-1,2.152800083E0,6.448907852E-1
1.414874939E1,2.562687099E-1,1.773231030E0,2.078610420E0
1.416657282E1,1.876841187E-1,1.252539873E0,3.424186707E0
1.418439661E1,2.646794915E-1,9.645421505E-1,3.840407372E0
1.420221961E1,2.723296881E-1,7.901198864E-1,3.698038101E0
1.422004309E1,-5.903055668E-1,6.945741177E-1,3.749253273E0
1.423786548E1,-8.120553493E-1,1.192723036E0,1.813793182E0
1.425569110E1,7.398173809E-1,1.068075180E0,6.002187729E-1
1.427351337E1,1.652130604E0,-9.660081863E-1,3.913119316E0
1.429133283E1,6.979393363E-1,-4.048264980E0,6.267202377E0
1.430916028E1,-1.542932689E-1,-4.777107239E0,4.486345291E0
1.432698371E1,2.326644361E-1,-2.840009928E0,6.040935516E-1
1.434480701E1,6.932716966E-1,-1.847868800E0,-1.407539845E0
1.436262457E1,1.388444901E0,-1.539413452E0,-1.106956482E0
1.438045374E1,1.890730381E0,-1.448620081E0,1.041030884E-2
1.439828040E1,2.016890526E0,-8.139765263E-1,6.526947021E-3
1.441610065E1,1.939532757E0,7.115578651E-2,-8.295269012E-1
1.443392426E1,1.345479250E0,3.633837700E-1,-1.850078106E0
1.445174762E1,3.159061670E-1,-1.730942726E-2,-2.700881481E0
1.446956708E1,-3.864223957E-1,-5.585765839E-1,-2.913115025E0
1.448739404E1,-6.004176736E-1,-7.088401318E-1,-3.366151810E0
1.450521662E1,-6.021900177E-1,-7.988395691E-1,-3.219066143E0
1.452304224E1,-5.949666500E-1,-9.266180992E-1,-2.953904629E0
1.454086377E1,-3.833183050E-1,-8.917772770E-1,-2.492665291E0
1.455868891E1,-4.704682529E-1,-1.076838255E0,-2.353508472E0
1.457651123E1,-4.316690564E-1,-1.148865223E0,-2.338745117E0
1.459433051E1,1.660799980E-2,-7.179794312E-1,-2.169756413E0
1.461215857E1,4.920651615E-1,-2.627186775E-1,-1.395520210E0
1.462998126E1,6.950111389E-1,2.014102936E-1,-4.954156876E-1
1.464780512E1,9.547929764E-1,1.002309084E0,2.318468094E-1
1.466562848E1,8.764647245E-1,1.437611580E0,7.311096191E-1
1.468345227E1,4.207177460E-1,1.501941204E0,1.576781273E0
1.470127545E1,2.806115150E-2,1.490967035E0,2.182805061E0
1.471909876E1,-2.699039876E-1,1.330722094E0,1.895754814E0
1.473692218E1,-2.251296937E-1,8.193213940E-1,2.364356995E0
1.475474555E1,-5.606174469E-2,1.582307816E-1,3.912434578E0
1.477256867E1,2.160653621E-1,3.253254890E-1,4.793639183E0
1.479039124E1,-1.292598844E-1,1.593280792E0,3.734337807E0
1.480821686E1,-3.052435815E-1,3.517834902E0,1.112163544E0
1.482603943E1,-3.063042462E-1,2.774289608E0,3.120422363E-3
1.484386133E1,-1.804524660E-1,-8.330941200E-2,2.746484756E0
1.486168671E1,-9.736422896E-1,-2.717770338E0,4.135626793E0
1.487950476E1,-2.233003616E0,-3.887791872E0,2.093968391E0
1.489732868E1,-2.437023163E0,-2.978209496E0,-6.044912338E-1
1.491515509E1,-2.002770424E0,-2.141111612E0,-1.676416874E0
1.493298065E1,-1.404114127E0,-2.040614605E0,-7.695951462E-1
1.495080304E1,-6.693916321E-1,-2.266752005E0,7.367782593E-1
1.496862665E1,1.624173671E-2,-2.345341206E0,1.779346466E0
1.498644953E1,6.690340042E-1,-2.334954500E0,2.357648849E0
1.500426862E1,9.116436839E-1,-1.745088100E0,7.556028366E-1
1.502209516E1,9.472987056E-1,-9.884252548E-1,-1.429027081E0
1.503992145E1,7.033138275E-1,-6.276957989E-1,-3.226876259E0
1.505774317E1,3.788596094E-1,-4.051122665E-1,-4.540868759E0
1.507556684E1,-2.829815447E-2,-3.560681343E-1,-5.147944450E0
1.509338996E1,-4.635144174E-1,-5.098626614E-1,-5.117825508E0
1.511121375E1,-5.909680128E-1,-5.696830750E-1,-4.155139446E0
1.512903668E1,-8.599193096E-1,-6.451506615E-1,-3.632143974E0
1.514685919E1,-8.629860878E-1,-4.235119820E-1,-3.155629158E0
1.516468476E1,-8.902927637E-1,-2.496118546E-1,-2.103961468E0
1.518250714E1,-8.255897760E-1,2.090182304E-1,-1.365361214E0
1.520032630E1,-6.374957561E-1,9.246888161E-1,-6.045837402E-1
1.521815387E1,-3.331579566E-1,1.519415140E0,3.043746948E-2
1.523597254E1,5.646646023E-3,1.691137314E0,1.511486053E0
1.525380103E1,-1.934382319E-2,1.313671112E0,3.275621414E0
1.527162372E1,7.968348265E-2,1.168718576E0,4.348285675E0
1.528944757E1,2.368912697E-1,1.321051359E0,4.392212868E0
1.530727136E1,2.899104953E-1,1.182517290E0,3.622580528E0
1.532509333E1,5.494813919E-1,7.727167606E-1,3.637811661E0
1.534291834E1,4.261133671E-1,5.847594738E-1,3.535130501E0
1.536074109E1,3.267176151E-1,1.050480366E0,2.082124710E0
1.537855237E1,1.415622950E0,1.361254215E0,4.464635849E-1
1.539638776E1,2.099233150E0,-2.528693676E-1,1.958153725E0
1.541421076E1,1.109605074E0,-3.383855104E0,3.688435555E0
1.543203461E1,2.045612931E-1,-4.218708038E0,2.142510414E0
1.544985651E1,-1.334667206E-3,-2.998746395E0,-1.461559296E0
1.546767786E1,3.694006801E-1,-1.809942961E0,-2.942918777E0
1.548550446E1,1.364582658E0,-8.356528282E-1,-2.052734852E0
1.550332428E1,1.898003340E0,-6.306512356E-1,-2.200031281E-1
1.552115149E1,2.010234118E0,-2.889478207E-1,1.093631744E0
1.553897498E1,1.710443974E0,6.819677353E-2,9.588422775E-1
1.555679675E1,1.017921329E0,1.787142754E-1,6.355094910E-2
1.557462256E1,1.926935911E-1,-5.796456337E-2,-7.592496872E-1
1.559244470E1,-3.301273882E-1,-2.159636021E-1,-1.532688141E0
1.561026917E1,-6.045572162E-1,-4.082114697E-1,-1.519440651E0
1.562809137E1,-8.201539516E-1,-5.414993763E-1,-1.605189323E0
1.564591492E1,-7.865021229E-1,-4.598762989E-1,-2.358539104E0
1.566373834E1,-6.965308189E-1,-5.131053925E-1,-2.609797955E0
1.568156214E1,-6.630399227E-1,-7.210173607E-1,-2.681391716E0
1.569937995E1,-4.189072251E-1,-6.773338318E-1,-3.115315437E0
1.571720838E1,-6.547209620E-2,-5.750205517E-1,-2.694975376E0
1.573503089E1,1.236660182E-1,-4.299328327E-1,-2.071446419E0
1.575285510E1,2.069064975E-1,-1.355311871E-1,-1.438621521E0
1.577067456E1,1.223910153E-1,4.113476276E-1,-1.297287941E0
1.578850061E1,9.381088614E-2,1.097955704E0,-1.030749321E0
1.580632233E1,-7.294304669E-2,1.291788101E0,-2.339410782E-1
1.582414881E1,-1.990045309E-1,1.077909231E0,9.408454895E-1
1.584197156E1,-2.743403912E-1,1.827716827E-1,3.103180885E0
1.585979492E1,-3.925977349E-1,-6.377210617E-1,4.974423409E0
1.587761878E1,-4.428761601E-1,-1.661942005E-1,5.505766869E0
1.589544251E1,-1.166482329E0,1.739701509E0,3.370038986E0
1.591326593E1,-4.358207881E-1,2.713023663E0,8.863220215E-1
1.593108875E1,1.334807038E0,2.109236717E0,2.585909843E0
1.594891217E1,7.582493424E-1,-1.333667517E0,6.010021210E0
1.596673572E1,-8.697915077E-1,-3.609956980E0,6.169922829E0
1.598455866E1,-1.716317415E0,-2.904102564E0,2.087661743E0
1.600238074E1,-1.732378602E0,-1.653197289E0,-1.467737198E0
1.602020416E1,-1.689475298E0,-1.099094868E0,-2.374933243E0
1.603802747E1,-1.293532848E0,-1.122391224E0,-1.491075039E0
1.605585382E1,-3.617605269E-1,-1.237339020E0,-5.291938782E-2
1.607367658E1,3.932924569E-1,-1.316939592E0,5.335426331E-1
1.609149890E1,6.910551786E-1,-1.603906274E0,6.640653610E-1
1.610931800E1,6.735750437E-1,-1.689509392E0,5.000295639E-1
1.612714557E1,5.137155056E-1,-1.434058666E0,-5.929536819E-1
1.614496906E1,3.850513995E-1,-7.448112965E-1,-2.007080078E0
1.616278064E1,1.527215242E-1,-3.481044769E-1,-3.085518837E0
1.618061560E1,-1.438814849E-1,-1.452710629E-1,-3.882272720E0
1.619843878E1,-2.347661704E-1,3.537797928E-2,-4.175679684E0
1.621626245E1,-2.422565669E-1,3.962087631E-2,-3.575422287E0
1.623408106E1,-2.560015321E-1,-1.993210316E-1,-2.591699123E0
1.625190772E1,-3.176640272E-1,-1.673281193E-1,-1.787132263E0
1.626973346E1,-9.128299356E-1,-4.427595139E-1,-1.332117081E0
1.628755573E1,-8.386237621E-1,3.476915359E-1,-1.687239647E0
1.630537927E1,-4.628194571E-1,1.302323818E0,-1.894833088E0
1.632320154E1,-3.103596866E-1,1.648788452E0,-1.323304176E0
1.634102643E1,1.454389095E-2,1.481462955E0,1.266002655E-1
1.635884778E1,3.974087834E-1,1.125827551E0,1.853813171E0
1.637667359E1,7.410869002E-1,6.767821312E-1,3.680629730E0
1.639449597E1,7.554726005E-1,2.909481525E-1,4.890961647E0
1.641231452E1,1.840329766E-1,6.482625008E-1,4.114568710E0
1.643014246E1,-4.503828287E-1,1.074235916E0,2.176476479E0
1.644796564E1,5.087646842E-1,8.353998661E-1,1.069107056E0
1.646578455E1,1.254287004E0,-9.494266510E-1,4.185004234E0
1.648361212E1,6.194402575E-1,-3.401416063E0,6.800268173E0
1.650143561E1,-1.107525229E-1,-4.030393600E0,5.753622055E0
1.651925916E1,6.276056170E-1,-2.260663986E0,2.491056442E0
1.653708276E1,1.449050665E0,-1.321624517E0,6.286745071E-1
1.655490448E1,2.061383009E0,-6.889646053E-1,-3.308429718E-1
1.657273029E1,2.156822681E0,-5.493948460E-1,-7.403907776E-1
1.659055231E1,2.251377821E0,-9.674286842E-2,-5.745649338E-1
1.660837604E1,2.235085726E0,3.845288754E-1,-8.257331848E-1
1.662619885E1,1.835017323E0,4.640986919E-1,-1.167436600E0
1.664402252E1,8.287259340E-1,2.331471443E-2,-1.883390427E0
1.666183295E1,-3.010856509E-1,-7.058925629E-1,-2.712525845E0
1.667966577E1,-7.556460500E-1,-1.032674551E0,-3.125652313E0
1.669749201E1,-9.742341638E-1,-1.195285082E0,-3.367220402E0
1.671531110E1,-9.447889328E-1,-1.125075817E0,-3.556835651E0
1.673313928E1,-6.641899347E-1,-9.559805393E-1,-3.616667747E0
1.675096246E1,-5.419548750E-1,-9.875199795E-1,-3.177997589E0
1.676878546E1,-5.008204579E-1,-1.141352892E0,-3.128598213E0
1.678660895E1,-1.788692623E-1,-1.001130819E0,-2.851872444E0
1.680443250E1,2.427323163E-1,-5.363776684E-1,-2.398957729E0
1.682225574E1,4.297007322E-1,1.851673126E-1,-2.027851582E0
1.684007892E1,4.376474619E-1,7.984378338E-1,-1.604733467E0
1.685790234E1,3.205527663E-1,1.106354713E0,-2.225437164E-1
1.687572553E1,4.860126972E-2,1.061614752E0,9.260883331E-1
1.689354914E1,2.214751840E-1,1.575551271E0,1.696690559E0
1.691137183E1,1.834262908E-1,1.509362936E0,2.663892746E0
1.692919568E1,-7.726947963E-2,5.385637283E-1,4.130093575E0
1.694701886E1,-3.072695732E-1,3.017115593E-2,5.037112236E0
1.696484125E1,-8.907674551E-1,1.564177990E0,3.488292694E0
1.698266626E1,-3.345579505E-1,2.351553917E0,1.218876839E0
1.700048395E1,9.359933138E-1,1.800057173E0,3.714146614E0
1.701830744E1,2.707346678E-1,-1.199847937E0,6.352570534E0
1.703613562E1,-1.088036776E0,-3.191851616E0,6.821389198E0
1.705395551E1,-1.575794101E0,-2.154436350E0,2.509642601E0
1.707178485E1,-1.883170724E0,-1.263668776E0,-1.059487343E0
1.708960169E1,-2.279914856E0,-1.126208544E0,-2.101740360E0
1.710742877E1,-1.956800580E0,-1.333271980E0,-8.313684464E-1
1.712525153E1,-1.304082990E0,-1.540760517E0,2.136592865E-1
1.714307532E1,-7.722831964E-1,-1.939094424E0,6.455039978E-1
1.716089850E1,-4.030278921E-1,-2.400064707E0,1.074904442E0
1.717872199E1,-2.105786353E-1,-2.390701532E0,3.288698196E-1
1.719654499E1,-9.087835252E-2,-1.749312997E0,-1.539484024E0
1.721436847E1,-1.370641589E-1,-1.115157843E0,-3.112654209E0
1.723219177E1,-1.761905849E-1,-4.138126373E-1,-4.540365219E0
1.725001526E1,-3.270140290E-1,-3.213882446E-2,-4.927839279E0
1.726783704E1,-3.651206791E-1,2.822821140E-1,-4.682174206E0
1.728566278E1,-4.055536389E-1,1.765065193E-1,-3.620502949E0
1.730348517E1,-7.501085997E-1,-2.155902386E-1,-2.820182800E0
1.732130274E1,-8.609254360E-1,-4.862265587E-1,-1.753034592E0
1.733913226E1,-5.808362365E-1,-5.924153328E-1,-4.382991791E-1
1.735695490E1,-4.034608006E-1,-4.443736076E-1,8.381557465E-2
1.737477814E1,-4.337339699E-1,1.080021858E-1,-3.166151047E-1
1.739260199E1,-3.300964236E-1,9.117801189E-1,-3.891601562E-1
1.741042432E1,-3.562695682E-1,1.174524307E0,1.506004333E-1
1.742824817E1,1.672238111E-3,1.603727818E0,5.864763260E-1
1.744607129E1,4.632508159E-1,1.739082098E0,1.603139877E0
1.746389496E1,6.873959899E-1,1.479821920E0,2.800899506E0
1.748171784E1,6.829453707E-1,1.466968536E0,3.074006081E0
1.749953638E1,1.816154718E-1,1.572322845E0,3.067947388E0
1.751736463E1,-3.883375525E-1,2.377922535E0,2.050744057E0
1.753518530E1,4.782462716E-1,2.136293650E0,1.397406578E0
1.755300745E1,1.889319301E0,4.144110680E-1,4.216726303E0
1.757083441E1,1.526356816E0,-2.685095787E0,7.727276802E0
1.758865863E1,3.829292059E-1,-4.707860947E0,7.895964622E0
1.760648132E1,2.436217666E-1,-3.645458221E0,3.315857887E0
1.762429938E1,7.391470075E-1,-2.361935616E0,2.133674622E-1
1.764212750E1,1.100574017E0,-1.930819511E0,-1.321759224E0
1.765995050E1,1.466745019E0,-1.621595740E0,-1.728046417E0
1.767777454E1,1.655032992E0,-1.253323793E0,-1.606595516E0
1.769559711E1,1.661602020E0,-6.352546215E-1,-1.847427845E0
1.771342078E1,1.500778913E0,-1.122970581E-1,-2.314105988E0
1.773124402E1,1.044629812E0,7.099056244E-2,-2.839298725E0
1.774906744E1,5.329787135E-1,-8.434295654E-3,-3.265923500E0
1.776688587E1,1.230890155E-1,-1.881182194E-1,-3.451529980E0
1.778471363E1,-2.332213223E-1,-4.545626640E-1,-3.407300949E0
1.780253040E1,-4.601870775E-1,-6.321623325E-1,-3.260332584E0
1.782036041E1,-5.220072865E-1,-7.360665798E-1,-2.861551285E0
1.783817883E1,-5.780639648E-1,-6.480662823E-1,-3.283066750E0
1.785601026E1,-2.250414193E-1,-3.549456596E-1,-3.146291256E0
1.787383069E1,6.770601869E-2,-2.373781204E-1,-2.488864422E0
1.789165436E1,3.061083555E-1,-1.735785007E-1,-1.097361565E0
1.790947193E1,4.004694819E-1,1.388611794E-1,-4.274187088E-1
1.792729547E1,7.876619101E-1,1.167406559E0,-5.809144974E-1
1.794512250E1,7.835284472E-1,1.649830580E0,-1.024932861E-1
1.796294776E1,4.411173761E-1,1.506883144E0,9.447784424E-1
1.798076935E1,3.315197229E-1,1.570444345E0,1.550158501E0
1.799858844E1,1.483734250E-1,1.316265583E0,1.790147781E0
1.801641651E1,1.170152873E-1,6.371817589E-1,2.592845917E0
1.803424018E1,3.404031098E-1,4.721212387E-2,4.013695717E0
1.805206275E1,4.193674326E-1,1.038505793E0,4.479784012E0
1.806988288E1,6.572986841E-1,2.283030987E0,1.888422012E0
1.808770691E1,1.847634315E0,2.302185059E0,3.538928032E0
1.810553424E1,1.254787683E0,-7.263088226E-2,6.536992073E0
1.812335596E1,-2.337350547E-1,-2.210145473E0,6.977030754E0
1.814117932E1,-1.069086790E0,-1.758759260E0,3.172598839E0
1.815900250E1,-1.544422626E0,-1.283246756E0,1.048879623E-1
1.817682709E1,-2.328343391E0,-1.533171415E0,-1.770359993E0
1.819464826E1,-2.566017389E0,-2.151646614E0,-1.534221172E0
1.821247235E1,-2.208958864E0,-2.499655962E0,-8.105659485E-1
1.823029132E1,-1.679298878E0,-2.659297466E0,-5.010614395E-1
1.824811926E1,-1.125549793E0,-2.772581339E0,-3.339052200E-1
1.826594190E1,-8.509148955E-1,-2.896852970E0,-4.412117004E-1
1.828376550E1,-7.769584060E-1,-2.730961561E0,-7.856454849E-1
1.830158374E1,-5.120890737E-1,-2.014283180E0,-1.947958469E0
1.831941107E1,-9.613603354E-2,-1.283210754E0,-2.787501335E0
1.833723603E1,1.962316483E-1,-7.053194046E-1,-3.696185112E0
1.835505731E1,3.425821364E-1,-2.171592712E-1,-3.998184681E0
1.837288184E1,1.123351157E-1,-3.133132458E-1,-3.644502640E0
1.839070636E1,-1.391272247E-1,-3.396608829E-1,-3.495625019E0
1.840852814E1,-1.735242754E-1,-8.280467987E-2,-3.308797836E0
1.842635163E1,-1.301344037E-1,2.486732006E-1,-2.807671070E0
1.844417487E1,-3.662561774E-1,3.524334431E-1,-2.506846428E0
1.846199817E1,-5.294823647E-2,8.573203087E-1,-1.648472786E0
1.847982178E1,-8.652371168E-2,1.258209944E0,-4.308261871E-1
1.849764386E1,-1.759980917E-1,1.600960970E0,6.561660767E-2
1.851546790E1,2.217274308E-1,2.030577183E0,9.699525833E-1
1.853328668E1,7.977685332E-1,2.110363960E0,3.173833847E0
1.855111286E1,8.892134428E-1,1.852138519E0,4.725730896E0
1.856893872E1,6.699621677E-1,1.795533180E0,5.220936775E0
1.858676087E1,6.961923838E-1,1.539288521E0,4.901169777E0
1.860458460E1,3.219884038E-1,1.469514489E0,4.208843231E0
1.862240698E1,2.119615674E-1,1.312324047E0,2.514319420E0
1.864023053E1,1.163802147E0,1.069878817E0,1.462823868E0
1.865805377E1,1.506459594E0,-1.220680237E0,3.645348549E0
1.867587647E1,2.246963978E-1,-4.398558617E0,4.893756866E0
1.869370130E1,-6.395623088E-1,-5.259617805E0,3.055510521E0
1.871152350E1,-9.653902054E-2,-3.821977615E0,8.379745483E-2
1.872934259E1,9.929075241E-1,-2.360490322E0,-1.245215416E0
1.874717023E1,2.197580576E0,-1.008702278E0,-1.323231697E0
1.876498840E1,2.999734402E0,2.502450943E-1,-1.287488937E-1
1.878281653E1,3.087512016E0,1.065061331E0,4.873504639E-1
1.880063983E1,2.635230064E0,1.365742445E0,1.238803864E-1
1.881846320E1,1.304804921E0,6.935162544E-1,-8.220672607E-1
1.883628546E1,-4.072427750E-2,-1.654720306E-1,-1.800177097E0
1.885410669E1,-6.041890979E-1,-6.285405159E-1,-2.764803886E0
1.887193567E1,-1.054918408E0,-9.851567745E-1,-3.544394493E0
1.888975623E1,-1.172023416E0,-1.145315409E0,-4.034897804E0
1.890757910E1,-1.171301961E0,-1.160466194E0,-4.286527634E0
1.892540296E1,-1.248534203E0,-1.270040751E0,-4.613556385E0
1.894322559E1,-1.184784532E0,-1.301717281E0,-4.919373512E0
1.896104914E1,-7.815499306E-1,-1.198730469E0,-4.481918335E0
1.897887097E1,-1.650478542E-1,-9.590873718E-1,-3.228820324E0
1.899669165E1,4.613419771E-1,-2.065379620E-1,-1.852499008E0
1.901451880E1,8.312765360E-1,6.925294399E-1,-9.241008759E-1
1.903234925E1,1.030324697E0,1.521943331E0,1.896648407E-1
1.905016510E1,6.391413212E-1,1.612299204E0,1.584636688E0
1.906798834E1,2.854349315E-1,1.350309014E0,2.950063705E0
1.908581079E1,-2.321371436E-2,1.144559860E0,3.755982399E0
1.910363611E1,-6.741206646E-1,2.224248648E-1,4.533056259E0
1.912145777E1,-6.474303603E-1,-1.699995995E-1,4.832395554E0
1.913928528E1,-5.357097387E-1,9.342844486E-1,4.252385139E0
1.915710456E1,-3.179631829E-1,2.731131077E0,1.887157440E0
1.917492822E1,6.404499412E-1,3.105794191E0,1.211443901E0
1.919275080E1,1.193591833E0,7.131421566E-1,4.627043724E0
1.921057428E1,4.548719525E-2,-2.134610653E0,7.155073166E0
1.922839752E1,-1.136014581E0,-3.158838034E0,5.457253456E0
1.924622107E1,-1.130913734E0,-1.347620726E0,1.112115860E0
1.926404370E1,-2.001368284E0,-8.555996418E-1,-2.043498993E0
1.928186621E1,-2.590894461E0,-1.146937847E0,-2.400055885E0
1.929968665E1,-1.976179481E0,-1.616559625E0,-3.970708847E-1
1.931751288E1,-1.478253841E0,-2.256978512E0,1.304359436E-1
1.933533362E1,-1.005641460E0,-2.878379822E0,3.577766418E-1
1.935316004E1,-6.534819603E-1,-3.247454643E0,8.630466461E-2
1.937098322E1,-7.922371477E-2,-2.817611694E0,-6.904449463E-1
1.938880676E1,4.346651435E-1,-1.899816513E0,-1.951250553E0
1.940662964E1,6.689312458E-1,-1.083851457E0,-3.186110020E0
1.942445319E1,6.633050442E-1,-3.723101616E-1,-4.352126598E0
1.944227783E1,5.515141487E-1,1.053464413E-1,-5.031019211E0
1.946009973E1,3.277451694E-1,4.133336544E-1,-5.354603767E0
1.947791925E1,1.674998701E-1,4.448843002E-1,-4.499241352E0
1.949574927E1,-2.457452863E-1,6.045031548E-2,-3.076851845E0
1.951356922E1,-6.694325209E-1,-1.476166248E-1,-2.205675125E0
1.953138800E1,-8.350923061E-1,-7.856297493E-2,-1.281681061E0
1.954921533E1,-5.596115589E-1,5.434498787E-1,-5.622043610E-1
1.956703888E1,-1.041880846E-1,1.201195359E0,3.488025665E-1
1.958486103E1,-3.451508284E-2,1.506163955E0,6.658039093E-1
1.960267151E1,3.760843277E-1,1.969274163E0,1.147952080E0
1.962051007E1,3.512893319E-1,1.819527268E0,2.033993721E0
1.963832874E1,2.141614556E-1,1.520492315E0,2.844696045E0
1.965615479E1,7.294195890E-2,1.461537004E0,3.128294945E0
1.967397840E1,-2.307477593E-1,1.177402020E0,2.940350533E0
1.969180103E1,-5.670791864E-1,3.756136894E-1,3.411703110E0
1.970962042E1,-1.082525015E0,9.516429901E-2,4.159418106E0
1.972744776E1,-3.890945017E-1,6.606192589E-1,2.552590370E0
1.974527216E1,2.344150543E0,1.496287346E0,2.230362892E0
1.976309400E1,2.853843212E0,-1.126384735E0,6.035552979E0
1.978091730E1,8.712482452E-1,-4.645024300E0,7.617961884E0
1.979874054E1,-3.280135691E-1,-4.135748863E0,2.855525017E0
1.981656397E1,2.195979357E-1,-1.808204651E0,-1.248079300E0
1.983437519E1,9.291287065E-1,-8.502779007E-1,-2.701338768E0
1.985220893E1,1.609478712E0,-7.185635567E-1,-1.150835991E0
1.987003449E1,1.988925695E0,-6.533215046E-1,-3.003883362E-2
1.988785584E1,2.229237318E0,1.891572475E-1,-3.465976715E-1
1.990568091E1,1.679885387E0,6.376426220E-1,-1.395450592E0
1.992350324E1,3.183308840E-1,1.242847443E-1,-2.787404060E0
1.994132184E1,-7.003901005E-1,-4.646852016E-1,-3.450956345E0
1.995914972E1,-1.032016754E0,-6.555676460E-1,-3.979462147E0
1.997697022E1,-1.151931763E0,-8.349630833E-1,-4.308612823E0
1.999479816E1,-1.052481413E0,-9.037287235E-1,-4.123387814E0
2.001261896E1,-8.152320385E-1,-8.272788525E-1,-3.808420658E0
2.003044245E1,-7.599868774E-1,-7.525126934E-1,-4.051557541E0
2.004826618E1,-3.330971897E-1,-5.070917606E-1,-3.664340973E0
2.006608405E1,2.265203893E-1,-5.079064369E-1,-2.601327896E0
2.008391071E1,5.751627088E-1,-3.005490303E-1,-1.527564049E0
2.010173633E1,1.053359866E0,2.790544033E-1,-1.438446045E-1
2.011955353E1,1.320031881E0,1.035553932E0,3.874549866E-1
2.013738159E1,1.089404821E0,1.521677971E0,9.334554672E-1
2.015520423E1,2.678443491E-1,1.572769880E0,1.248734474E0
2.017302863E1,-2.541830540E-1,1.655292988E0,1.608936310E0
2.019084967E1,-5.625262856E-1,1.270555973E0,2.185888290E0
2.020867554E1,-9.537860155E-1,3.019356728E-1,3.332260132E0
2.022649732E1,-7.257368565E-1,-4.302392006E-1,4.880423546E0
2.024431708E1,-4.620792270E-1,1.285898685E-1,5.371704102E0
2.026214325E1,-1.429772079E-1,2.280998945E0,2.586758614E0
2.027996710E1,9.830341339E-1,3.201380491E0,1.082735062E0
2.029778571E1,9.189814925E-1,6.378335953E-1,3.616782188E0
2.031561383E1,-4.633406997E-1,-2.636391163E0,5.154618263E0
2.033343634E1,-1.342523575E0,-3.273059845E0,3.055001259E0
2.035125977E1,-1.651936054E0,-1.939880252E0,-9.967336655E-1
2.036908313E1,-1.789567709E0,-1.081772089E0,-2.853124619E0
2.038690534E1,-1.653366089E0,-1.100700378E0,-1.859559059E0
2.040473047E1,-8.121438026E-1,-1.365574837E0,-1.251020432E-1
2.042255249E1,4.349701107E-2,-1.454654694E0,7.844581604E-1
2.044037586E1,7.684180737E-1,-1.570834637E0,1.191169739E0
2.045819928E1,9.871755838E-1,-1.576978922E0,8.200778961E-1
2.047602191E1,8.453460932E-1,-1.588469028E0,1.850099564E-1
2.049384412E1,6.050714254E-1,-1.202368021E0,-1.128314972E0
2.051166998E1,4.376117587E-1,-4.953086376E-1,-2.513063431E0
2.052948761E1,1.493783295E-1,-5.735909939E-2,-3.522756577E0
2.054731030E1,-1.855360270E-1,1.245678663E-1,-4.161116600E0
2.056513739E1,-4.158346653E-1,5.071520805E-2,-3.746162891E0
2.058296234E1,-5.130392313E-1,-1.346795559E-1,-2.966041088E0
2.060078913E1,-1.008120537E0,-6.064001322E-1,-2.420961857E0
2.061860602E1,-1.256686926E0,-8.495212793E-1,-1.586661339E0
2.063643219E1,-1.138674498E0,-3.415794373E-1,-1.618774891E0
2.065425385E1,-5.589684248E-1,6.710960865E-1,-1.212729454E0
2.067207752E1,-2.533013225E-1,1.589901209E0,-9.890289307E-1
2.068990015E1,5.339768529E-2,2.166168928E0,-4.962797165E-1
2.070772370E1,6.472839117E-1,2.337173700E0,1.466761589E0
2.072554663E1,1.152374744E0,2.030421019E0,3.271795273E0
2.074337024E1,1.377068043E0,1.928333759E0,3.751111984E0
2.076119287E1,1.124644995E0,1.983374596E0,3.329687119E0
2.077901612E1,1.265640259E-1,2.031765938E0,2.568156242E0
2.079683869E1,8.157473803E-2,1.635866404E0,1.084285736E0
2.081466388E1,1.010955572E0,-1.388449669E-1,1.223727226E0
2.083248102E1,1.716940165E0,-3.050096750E0,5.815867424E0
2.085030304E1,1.620665193E-1,-6.376765251E0,8.569046021E0
2.086813336E1,-6.643540859E-1,-6.088059902E0,6.260882378E0
2.088595563E1,7.911643982E-1,-2.728944778E0,2.058090210E0
2.090377832E1,1.953523755E0,-7.205796242E-1,-8.102159500E-1
2.092160187E1,2.576038122E0,-1.440339088E-1,-9.502744675E-1
2.093942462E1,2.432205915E0,-4.803192616E-1,2.309751511E-1
2.095724835E1,2.271713734E0,-2.213656902E-1,2.047147751E-1
2.097506983E1,2.405992508E0,8.319153786E-1,-7.470188141E-1
2.099289557E1,1.910710931E0,1.495182991E0,-2.176292419E0
2.101071759E1,6.057502031E-1,8.577508926E-1,-3.407237053E0
2.102854108E1,-5.855009556E-1,-1.815412045E-1,-3.839426994E0
2.104636377E1,-1.076187372E0,-7.928938866E-1,-4.013479233E0
2.106418244E1,-1.385505319E0,-1.183484554E0,-4.176072121E0
2.108200916E1,-1.478232861E0,-1.367137671E0,-4.333173275E0
2.109983356E1,-1.315531969E0,-1.260992289E0,-4.414481163E0
2.111765766E1,-9.424529672E-1,-1.100414515E0,-3.972178936E0
2.113547974E1,-7.948393226E-1,-1.123381138E0,-3.682564259E0
2.115329816E1,-5.105286837E-1,-1.016046047E0,-2.894723892E0
2.117112628E1,6.953719258E-2,-6.675665379E-1,-2.025735855E0
2.118894898E1,6.086993217E-1,-5.841255188E-4,-1.143157005E0
2.120677283E1,1.117244363E0,8.683698177E-1,-6.147861481E-2
2.122459540E1,1.182818890E0,1.433302164E0,5.967521667E-1
2.124240704E1,8.652349114E-1,1.578144073E0,1.401992798E0
2.126024152E1,5.256747007E-1,1.394552231E0,3.233315468E0
2.127806262E1,-4.454931319E-1,8.465046883E-1,3.673312187E0
2.129588745E1,-1.098847151E0,6.812882423E-2,3.690593719E0
2.131371051E1,-6.020720005E-1,-1.852066517E-1,4.503503799E0
2.133153443E1,-7.185393572E-1,6.675982475E-2,4.657603264E0
2.134936499E1,-1.015563488E0,2.043038368E0,2.798717499E0
2.136718097E1,-1.759751141E-2,3.320266247E0,3.043804169E-1
2.138500336E1,6.519110203E-1,1.790622950E0,1.748551369E0
2.140282849E1,-4.542195797E-1,-2.029071093E0,4.646723747E0
2.142064948E1,-1.543188572E0,-3.531962633E0,3.971994400E0
2.143847345E1,-2.248529196E0,-2.924445629E0,1.617889404E-1
2.145629279E1,-1.860031843E0,-1.917356610E0,-1.570035934E0
2.147411963E1,-1.494941711E0,-1.756275177E0,-1.362325668E0
2.149194318E1,-7.905839682E-1,-1.989257812E0,1.563796997E-1
2.150976618E1,-4.792794585E-2,-2.167263508E0,1.512859344E0
2.152758502E1,8.296363354E-1,-1.952807069E0,2.178177834E0
2.154541211E1,1.483443022E0,-1.376054525E0,1.022418976E0
2.156323566E1,1.611610293E0,-8.002660275E-1,-1.024116516E0
2.158105860E1,1.500914097E0,-2.959797382E-1,-2.540983677E0
2.159888111E1,1.027140856E0,8.820533752E-3,-3.717946053E0
2.161670441E1,4.636977613E-1,1.672124863E-1,-4.532314777E0
2.163452960E1,1.204639673E-3,1.721458435E-1,-4.569995880E0
2.165235156E1,-2.678552866E-1,8.230948448E-2,-4.049052238E0
2.167017487E1,-3.707334995E-1,-7.817959785E-2,-3.348124504E0
2.168799738E1,-5.790767074E-1,-3.288283348E-1,-2.563197136E0
2.170582147E1,-6.919903159E-1,-4.364542961E-1,-1.532980919E0
2.172364319E1,-8.096584678E-1,-2.957682610E-1,-1.144493103E0
2.174146710E1,-9.783934355E-1,7.502079010E-2,-1.159019470E0
2.175928589E1,-8.110573292E-1,8.541738987E-1,-1.692963600E0
2.177711353E1,-4.498660564E-1,1.361519098E0,-6.886854172E-1
2.179493659E1,-9.763848782E-2,1.411386967E0,1.443681717E0
2.181275983E1,2.168663442E-1,1.501754522E0,2.792796135E0
2.183057788E1,6.492906809E-1,1.470162630E0,3.971286774E0
2.184840466E1,8.832792044E-1,1.318540573E0,4.375953674E0
2.186623017E1,9.050405025E-1,1.034236670E0,4.791009903E0
2.188405261E1,1.273390353E-1,1.126546860E0,4.742619514E0
2.190187390E1,5.741351843E-2,1.621145010E0,2.356657982E0
2.191969965E1,1.589773655E0,1.857099533E0,1.586686134E0
2.193752142E1,1.629020929E0,-8.203845024E-1,4.066406250E0
2.195534924E1,1.375085115E-2,-3.987168550E0,5.075993538E0
2.197315552E1,-7.361753583E-1,-4.367500305E0,2.850130081E0
2.199099097E1,-2.940630913E-1,-2.539403677E0,-7.646112442E-1
2.200881446E1,3.666393757E-1,-1.464631319E0,-2.576047421E0
2.202663739E1,1.161120415E0,-8.504450321E-1,-2.127805233E0
2.204446021E1,1.746056795E0,-7.298650742E-1,-2.723035812E-1
2.206227881E1,2.104277134E0,-2.178883553E-2,4.981575012E-1
2.208010675E1,2.079632759E0,6.509516239E-1,1.191291809E-1
2.209792993E1,1.176053762E0,4.786953926E-1,-7.915563583E-1
2.211575281E1,-2.086938024E-1,-2.153646946E-1,-1.866241455E0
2.213357611E1,-9.893126488E-1,-5.814299583E-1,-2.762409210E0
2.215139923E1,-1.379325867E0,-8.847591877E-1,-3.563247681E0
2.216922296E1,-1.449897885E0,-9.747040272E-1,-3.909215450E0
2.218704517E1,-1.357092619E0,-1.003553391E0,-3.928749084E0
2.220486792E1,-9.218991399E-1,-8.487563133E-1,-3.932346344E0
2.222269293E1,-4.147857428E-1,-8.687958717E-1,-3.243705273E0
2.224051520E1,-5.727446079E-2,-8.922302723E-1,-2.406915665E0
2.225833423E1,3.029842973E-1,-4.741888046E-1,-2.035058022E0
2.227616113E1,7.091205120E-1,4.720046520E-1,-1.326452255E0
2.229398145E1,7.058262825E-1,1.327019215E0,-1.121219635E0
2.231181079E1,3.687969744E-1,1.672531843E0,-4.995241165E-1
2.232962634E1,6.521520019E-2,1.751003265E0,6.891794205E-1
2.234745343E1,-3.435882926E-1,1.267786026E0,2.025330544E0
2.236527838E1,-7.624487877E-1,4.345388412E-1,3.359056473E0
2.238309894E1,-8.346734643E-1,-3.955054283E-1,4.443957329E0
2.240092401E1,-3.659474254E-1,-3.076307774E-1,5.508854866E0
2.241874616E1,-5.974643826E-1,1.189823389E0,4.675578117E0
2.243656934E1,-1.381486207E-1,2.689847469E0,2.314054489E0
2.245439288E1,9.753782749E-1,2.656303406E0,3.277752876E0
2.247221509E1,7.499639988E-1,3.666534424E-1,5.386228561E0
2.249003888E1,-1.482535899E-1,-1.391869545E0,5.573873520E0
2.250786072E1,-1.248003840E0,-1.490491867E0,2.115258217E0
2.252568622E1,-1.936138868E0,-1.162362337E0,-9.755392075E-1
2.254350781E1,-2.210639954E0,-1.061290026E0,-2.887674332E0
2.256132721E1,-1.689388275E0,-1.429351330E0,-1.562438011E0
2.257915412E1,-1.037396908E0,-2.173047304E0,3.961124420E-1
2.259697266E1,-7.548476458E-1,-2.850233555E0,1.014955521E0
2.261480023E1,-2.847829461E-1,-2.958625317E0,7.605619431E-1
2.263262390E1,3.505679071E-1,-2.161088228E0,-4.716920853E-1
2.265044678E1,6.119922400E-1,-1.583290339E0,-1.963157654E0
2.266827057E1,7.478705645E-1,-9.198091030E-1,-3.302615166E0
2.268609278E1,7.703708410E-1,-2.391786575E-1,-4.068732738E0
2.270391602E1,4.020553231E-1,2.969703674E-1,-5.079971790E0
2.272173908E1,5.033212900E-2,6.171269417E-1,-5.134332180E0
2.273955768E1,-5.063250661E-1,5.780513287E-1,-4.528852940E0
2.275738532E1,-8.901128769E-1,6.055746078E-1,-3.642399788E0
2.277520734E1,-1.090701938E0,5.781061649E-1,-2.706974030E0
2.279303296E1,-1.186496019E0,2.264342308E-1,-1.272874832E0
2.281085382E1,-1.186601400E0,1.495785713E-1,7.145214081E-2
2.282867401E1,-9.181467891E-1,4.990150928E-1,5.483770370E-1
2.284650080E1,-5.657718182E-1,9.983263016E-1,1.353123665E0
2.286432007E1,-3.938189149E-1,1.220509291E0,1.905566216E0
2.288214752E1,-1.007379889E-1,1.305677891E0,2.671139717E0
2.289996991E1,3.988309503E-1,1.645367384E0,3.042935371E0
2.291779260E1,7.856175303E-1,1.937592268E0,3.041374207E0
2.293561762E1,8.943793178E-1,1.900237083E0,2.942623138E0
2.295344000E1,4.551070929E-1,1.883040905E0,2.399062157E0
2.297126227E1,9.045535922E-1,1.357896566E0,1.351124763E0
2.298908594E1,1.641757488E0,-2.737071514E-1,3.226686478E0
2.300689740E1,1.104060888E0,-3.269994974E0,7.060787201E0
2.302473206E1,-4.084434807E-1,-5.463810444E0,7.679680824E0
2.304254663E1,-8.669161797E-2,-3.538921118E0,3.549968719E0
2.306037335E1,1.192629099E0,-1.284121275E0,1.437911987E-1
2.307819684E1,2.036539078E0,-2.609586716E-1,-1.328907013E0
2.309602875E1,2.731796980E0,1.037836075E-1,-1.172660828E0
2.311384625E1,3.099165440E0,1.026780605E-1,-3.314085007E-1
2.313166754E1,3.107976675E0,4.387915134E-1,-4.319601059E-1
2.314948779E1,2.905596495E0,1.024066687E0,-1.253708839E0
2.316731421E1,1.754295230E0,8.573021889E-1,-2.612928391E0
2.318513904E1,1.968169808E-1,-1.598153114E-1,-3.392750263E0
2.320296405E1,-6.218585968E-1,-8.307828903E-1,-3.673779964E0
2.322078589E1,-1.283457518E0,-1.388862133E0,-4.159087181E0
2.323861060E1,-1.462392330E0,-1.583303213E0,-4.251757622E0
2.325643122E1,-1.465671778E0,-1.478706241E0,-4.364796162E0
2.327425568E1,-1.461566925E0,-1.354302168E0,-4.549496174E0
2.329207886E1,-1.195025086E0,-1.166087151E0,-4.709753513E0
2.330990192E1,-7.237638235E-1,-9.343461990E-1,-3.828009605E0
2.332772437E1,-2.898049057E-1,-8.719365597E-1,-2.283362865E0
2.334554761E1,2.653649151E-1,-4.899644852E-1,-5.881738663E-1
2.336336627E1,8.597190380E-1,3.669471741E-1,4.995641708E-1
2.338119300E1,1.289547205E0,1.588217020E0,8.480863571E-1
2.339901795E1,1.131256819E0,2.176083326E0,1.392818451E0
2.341683924E1,6.890421510E-1,2.321437359E0,2.019650459E0
2.343466425E1,-9.147152305E-2,1.566648483E0,2.415201187E0
2.345248688E1,-6.183554530E-1,4.528455734E-1,3.215214729E0
2.347030414E1,-2.887991667E-1,-5.328774452E-2,4.423750877E0
2.348813263E1,-2.803505361E-1,1.218525171E0,4.090701103E0
2.350595557E1,8.259952068E-2,2.703274012E0,1.972942352E0
2.352377912E1,9.541513920E-1,2.046134233E0,3.550769806E0
2.354160138E1,1.686412096E-1,-9.709234238E-1,6.593795776E0
2.355942481E1,-1.306136131E0,-2.964920998E0,7.185095787E0
2.357724799E1,-2.218994141E0,-2.062465191E0,2.347723007E0
2.359506531E1,-2.331153154E0,-1.028371811E0,-7.843170166E-1
2.361289380E1,-2.525840044E0,-9.694643021E-1,-1.806019306E0
2.363071826E1,-2.063709736E0,-1.671149015E0,-2.521705627E-2
2.364854029E1,-1.355416775E0,-2.293819666E0,1.012910843E0
2.366636359E1,-5.354810953E-1,-2.540398598E0,1.366339684E0
2.368418506E1,2.840527892E-1,-2.298377752E0,6.907348633E-1
2.370201050E1,7.228345275E-1,-1.539320230E0,-1.096936226E0
2.371983154E1,9.640306234E-1,-9.353652000E-1,-2.751149178E0
2.373765698E1,1.042410016E0,-3.078937531E-1,-4.173779488E0
2.375547858E1,6.639360189E-1,-1.057367325E-1,-5.264760971E0
2.377329712E1,3.098654747E-1,6.303119659E-2,-5.653556824E0
2.379112506E1,8.723568916E-2,-1.133084297E-2,-4.989209175E0
2.380894830E1,-2.498055845E-1,-1.506218910E-1,-4.251035213E0
2.382676612E1,-6.547240019E-1,-1.529161930E-1,-3.665691853E0
2.384459424E1,-9.729727507E-1,-2.581233978E-1,-2.960865974E0
2.386241699E1,-1.238903761E0,-1.117053032E-1,-1.722250462E0
2.388024054E1,-1.511393547E0,1.100423336E-1,-7.260980606E-1
2.389806317E1,-1.341022015E0,6.533720493E-1,-3.373794556E-1
2.391588562E1,-7.278528214E-1,1.180327415E0,5.950651169E-1
2.393371063E1,-2.110928297E-1,1.407086134E0,2.127598763E0
2.395153278E1,3.363347054E-1,1.524612427E0,3.794938087E0
2.396935132E1,9.122721553E-1,1.851765394E0,4.976190567E0
2.398717871E1,1.173834085E0,1.914714575E0,4.870445251E0
2.400500202E1,1.243437529E0,1.824689865E0,4.692283630E0
2.402282617E1,3.076792359E-1,1.832755566E0,3.778776169E0
2.404064649E1,2.738067508E-1,1.575493336E0,7.444248199E-1
2.405846613E1,1.478165150E0,8.187682629E-1,8.110227585E-1
2.407628937E1,1.374796987E0,-2.513691187E0,4.399111748E0
2.409411481E1,-2.308133543E-1,-5.205115318E0,5.578857422E0
2.411194226E1,-3.000410795E-1,-4.579967022E0,2.865498543E0
2.412975861E1,1.051950574E0,-2.144576073E0,-8.277893066E-4
2.414758521E1,1.836748481E0,-8.849856853E-1,-1.511060238E0
2.416541095E1,2.531496525E0,-2.567527294E-1,-4.924268723E-1
2.418323218E1,2.466295242E0,-5.501842499E-2,1.989870071E-1
2.420105542E1,2.001933336E0,3.330914974E-1,-3.192663193E-1
2.421887738E1,1.202891350E0,4.145171642E-1,-1.574719429E0
2.423670276E1,2.331690788E-1,-9.702444077E-3,-2.330315590E0
2.425452436E1,-5.517508388E-1,-5.276403427E-1,-3.147014141E0
2.427234870E1,-8.370500803E-1,-8.069846630E-1,-3.605834007E0
2.429017090E1,-9.877206087E-1,-1.009587526E0,-3.700345039E0
2.430799420E1,-1.119891882E0,-1.014071465E0,-3.696273804E0
2.432581677E1,-1.245568275E0,-1.112169266E0,-3.269198418E0
2.434363977E1,-1.226154447E0,-1.095596790E0,-3.664545536E0
2.436145850E1,-7.823851109E-1,-8.169238567E-1,-3.467163563E0
2.437928449E1,-5.798938870E-1,-8.165993690E-1,-2.494419098E0
2.439711011E1,-3.285926282E-1,-5.649774075E-1,-1.861124992E0
2.441493231E1,3.628632426E-2,1.258897781E-2,-7.269601822E-1
2.443275519E1,1.147565842E-1,8.338036537E-1,-2.818098068E-1
2.445057868E1,2.721810937E-1,1.721754074E0,3.243551254E-1
2.446840106E1,8.064451814E-2,1.903307676E0,1.567290306E0
2.448622461E1,-3.671908379E-1,1.338064194E0,2.297065735E0
2.450404743E1,-4.905309081E-1,5.912537575E-1,3.366827965E0
2.452186994E1,-2.350509763E-1,-2.307827473E-1,4.632869720E0
2.453969452E1,6.383514404E-2,1.977515221E-1,5.687648773E0
2.455751666E1,-3.106143475E-1,2.247119188E0,3.819243431E0
2.457533563E1,8.153694868E-1,3.615416765E0,7.378616333E-1
2.459315833E1,1.338134408E0,1.700582504E0,4.292023659E0
2.461098554E1,-3.024745286E-1,-2.051834583E0,6.906171799E0
2.462880902E1,-1.980921268E0,-3.268068790E0,4.177520752E0
2.464663196E1,-1.898528337E0,-1.433098316E0,-3.237657547E-1
2.466445532E1,-2.086422443E0,-4.601433277E-1,-2.399387836E0
2.468228082E1,-1.873972893E0,-6.738388538E-1,-1.312744141E0
2.470010102E1,-1.149206638E0,-1.264824152E0,1.936397552E-1
2.471792041E1,-4.237836599E-1,-2.132201195E0,1.574750900E0
2.473575098E1,2.099326253E-2,-2.785431862E0,2.003335953E0
2.475356989E1,8.011043072E-1,-2.281723738E0,7.576045990E-1
2.477139331E1,1.108127952E0,-1.648536444E0,-1.172891617E0
2.478921631E1,9.984525442E-1,-9.680514336E-1,-3.145669460E0
2.480703961E1,8.132832050E-1,-3.107621670E-1,-4.772082329E0
2.482486096E1,2.949916720E-1,-2.405323982E-1,-5.735211372E0
2.484267786E1,-2.913502455E-1,-6.376385689E-1,-5.202486992E0
2.486050830E1,-4.704087973E-1,-7.754237652E-1,-4.308534145E0
2.487832477E1,-7.374677658E-1,-7.452867031E-1,-3.944772720E0
2.489615686E1,-9.495136142E-1,-4.608132839E-1,-3.473925591E0
2.491397644E1,-1.026395559E0,-1.939928532E-1,-1.971727848E0
2.493180176E1,-1.079242110E0,3.242495060E-1,-1.083324432E0
2.494961988E1,-1.026358843E0,1.266070366E0,-9.480066299E-1
2.496744654E1,-5.873066783E-1,2.277485609E0,-9.109067917E-1
2.498527026E1,1.058448553E-1,2.809075117E0,-9.844779968E-3
2.500309278E1,8.727110028E-1,2.727302074E0,1.397207260E0
2.502091608E1,1.441146135E0,2.055494785E0,4.038813591E0
2.503873877E1,1.324567199E0,1.177405834E0,5.094191551E0
2.505656195E1,8.376885653E-1,2.005815506E-1,4.908074379E0
2.507438477E1,-9.805452824E-2,-4.316370487E-1,4.272754669E0
2.509220831E1,6.273984909E-4,7.076034546E-1,2.180183411E0
2.511003076E1,1.561600685E0,1.351506472E0,7.683887482E-1
2.512785309E1,2.191237450E0,-5.950601101E-1,3.265718460E0
2.514567816E1,7.102414966E-1,-3.789244175E0,5.195438385E0
2.516350055E1,-5.563762188E-1,-4.654882431E0,3.590285301E0
2.518131836E1,1.064841151E-1,-2.464918137E0,4.784736633E-1
2.519914624E1,1.353210092E0,-8.782451153E-1,-1.158809662E0
2.521696918E1,2.619616985E0,-3.245403767E-1,-6.786336899E-1
2.523479254E1,3.078077793E0,-3.955304623E-1,1.271677017E0
2.525261505E1,2.543797731E0,-5.217592716E-1,2.403206825E0
2.527043817E1,1.193280816E0,-5.452233553E-1,1.395168304E0
2.528826148E1,-8.835875988E-2,-3.181420565E-1,-8.707389832E-1
2.530608454E1,-8.794653416E-1,-2.455389500E-1,-2.176309586E0
2.532390723E1,-1.213528037E0,-4.233703613E-1,-3.528937817E0
2.534173023E1,-1.176506042E0,-5.548921824E-1,-3.593239307E0
2.535954883E1,-9.912474751E-1,-7.075901031E-1,-3.100685120E0
2.537737671E1,-6.230764985E-1,-6.392248869E-1,-3.393065929E0
2.539519843E1,-4.322555363E-1,-4.047493935E-1,-3.974163532E0
2.541302350E1,-1.118592322E-1,-1.017873287E-1,-4.626555443E0
2.543084430E1,2.789104283E-1,-1.538777351E-2,-4.518141270E0
2.544866876E1,4.807361960E-1,-9.322094917E-2,-3.175142765E0
2.546649231E1,4.853116274E-1,-1.844642162E-1,-1.828609943E0
2.548430988E1,5.328044295E-1,2.338347435E-1,-1.089920044E0
2.550213745E1,5.793280602E-1,7.348146439E-1,-4.250221252E-1
2.551996076E1,4.690078199E-1,1.079260111E0,3.365011215E-1
2.553778333E1,1.674733758E-1,1.269303799E0,1.046394348E0
2.555560675E1,8.363625407E-2,9.639427662E-1,2.076916695E0
2.557342969E1,-2.148478627E-1,3.136172295E-1,3.664381027E0
2.559125299E1,-1.235261038E-1,-5.646159649E-1,5.201886177E0
2.560907544E1,2.530969381E-1,8.948028088E-2,6.046340942E0
2.562689893E1,-8.880414069E-2,1.927450538E0,3.326956749E0
2.564472162E1,7.908733487E-1,2.501087666E0,2.190326691E0
2.566254010E1,6.887788177E-1,-7.839798927E-3,5.134070396E0
2.568036627E1,-1.039709210E0,-2.967554569E0,6.426726341E0
2.569819177E1,-2.174275398E0,-3.461684942E0,3.417332649E0
2.571601367E1,-2.315293789E0,-2.057033777E0,-6.322603226E-1
2.573383612E1,-2.538224697E0,-1.269418478E0,-2.919522285E0
2.575166053E1,-2.385306835E0,-1.556734324E0,-2.446822643E0
2.576947852E1,-1.224556684E0,-1.563132763E0,-5.419216156E-1
2.578730103E1,-7.172755152E-2,-1.616111636E0,3.618078232E-1
2.580512805E1,6.722926497E-1,-1.897010088E0,9.535999298E-1
2.582295276E1,1.116311789E0,-2.008651733E0,1.270015717E0
2.584077472E1,1.316316962E0,-1.564501643E0,-2.314243317E-1
2.585859766E1,1.267888427E0,-7.500826716E-1,-1.779537201E0
2.587642108E1,9.273889065E-1,-9.636723995E-2,-3.340128899E0
2.589423902E1,5.606005192E-1,3.329906464E-1,-4.615019321E0
2.591206574E1,1.416077316E-1,4.172044992E-1,-4.893392563E0
2.592989142E1,-3.716024756E-2,1.785444021E-1,-3.677152634E0
2.594771283E1,-5.081350803E-1,-2.886151075E-1,-3.253258228E0
2.596553589E1,-7.859346271E-1,-4.280129671E-1,-2.920489788E0
2.598335907E1,-8.255903721E-1,-2.823334932E-1,-2.547465324E0
2.600118195E1,-9.006862044E-1,7.220983505E-2,-2.263619900E0
2.601900513E1,-4.830145836E-1,1.020139933E0,-1.973886490E0
2.603682831E1,-2.088537514E-1,1.737085700E0,-1.283842087E0
2.605465039E1,-3.061658144E-2,2.030956984E0,-3.108024597E-2
2.607247388E1,-3.969091177E-2,1.838311553E0,1.515602112E0
2.609029279E1,3.307598829E-2,1.461465836E0,3.079295158E0
2.610811963E1,7.848310471E-2,1.092473865E0,4.297713280E0
2.612593830E1,-1.286420226E-1,8.063458204E-1,4.680346489E0
2.614376575E1,-2.001973689E-1,5.879553556E-1,4.676074982E0
2.616158942E1,-4.536032677E-1,8.427834511E-1,4.724120140E0
2.617940021E1,-2.153921127E-2,1.706752181E0,2.525720596E0
2.619723499E1,2.058397055E0,1.945665956E0,9.484224319E-1
2.621505695E1,2.856921196E0,-4.250291586E-1,4.560523033E0
2.623288135E1,6.608588696E-1,-4.225911617E0,5.998888969E0
2.625070477E1,-8.210292459E-1,-4.928907871E0,3.511772156E0
2.626852716E1,-6.063919663E-1,-2.894711971E0,-4.074954987E-1
2.628634986E1,-4.250752926E-2,-1.390690327E0,-2.994411945E0
2.630417310E1,1.166441202E0,-6.049686670E-1,-2.538218975E0
2.632199561E1,1.800897837E0,-7.545285225E-1,-2.602853775E-1
2.633981891E1,1.964206696E0,-5.769820213E-1,1.172872543E0
2.635763709E1,2.008584976E0,1.597975492E-1,8.150978088E-1
2.637546509E1,1.141521931E0,5.538616180E-1,-1.228950500E0
2.639328418E1,-6.940990686E-2,2.762273550E-1,-2.779740334E0
2.641111109E1,-9.499179125E-1,-1.400946379E-1,-3.694155216E0
2.642893415E1,-1.212852955E0,-4.379448891E-1,-3.936064720E0
2.644675611E1,-1.181095123E0,-4.681215286E-1,-3.603019238E0
2.646458075E1,-1.049535990E0,-4.117223024E-1,-3.250113010E0
2.648239405E1,-9.342019558E-1,-3.574790955E-1,-3.155710220E0
2.650022559E1,-5.061015487E-1,-9.066939354E-3,-3.053856850E0
2.651804608E1,4.642423987E-2,3.299943209E-1,-2.912500858E0
2.653587372E1,5.415177941E-1,7.156420946E-1,-3.001360893E0
2.655369593E1,7.221179008E-1,8.706247807E-1,-1.860921383E0
2.657151782E1,9.339518547E-1,1.036977768E0,-8.014249802E-1
2.658933722E1,4.725374579E-1,7.615680695E-1,2.616691589E-2
2.660716352E1,2.036671638E-1,1.101840496E0,-1.922149658E-1
2.662497492E1,-2.552086115E-2,1.228057265E0,2.038087845E-1
2.664279840E1,-5.182152390E-1,6.616311073E-1,1.575783730E0
2.666062811E1,-1.271712303E0,-5.936992764E-1,3.476027489E0
2.667845404E1,-1.108769178E0,-1.306512117E0,5.297582626E0
2.669628314E1,-2.513935566E-1,-3.328069448E-1,6.232294083E0
2.671410181E1,-7.057178020E-1,1.572482944E0,3.922732353E0
2.673192511E1,-3.866928816E-2,2.562974453E0,1.514686584E0
2.674974726E1,1.895490736E-1,1.127641320E0,3.374986649E0
2.676757062E1,-1.270261884E0,-2.173121929E0,5.524207115E0
2.678539350E1,-2.427790642E0,-2.870038033E0,3.301491737E0
2.680321710E1,-2.908225060E0,-2.144558191E0,-1.170024872E-1
2.682103900E1,-3.070875168E0,-1.785574317E0,-1.919994831E0
2.683886151E1,-2.612339020E0,-1.691586852E0,-1.431433678E0
2.685668659E1,-1.897529840E0,-2.259257555E0,2.511053085E-1
2.687450885E1,-5.934447050E-1,-2.118521690E0,1.671707153E0
2.689232636E1,6.041854620E-1,-1.911516428E0,2.501887321E0
2.691015332E1,1.323568106E0,-1.273246050E0,1.302615166E0
2.692797852E1,1.862420082E0,-4.647569656E-1,-5.483779907E-1
2.694580054E1,1.816282272E0,3.221515417E-1,-2.920752048E0
2.696362323E1,1.277639985E0,5.450582504E-1,-4.599272251E0
2.698144629E1,4.302448034E-1,1.767766476E-1,-5.406020641E0
2.699926978E1,-2.602146268E-1,-3.362678289E-1,-5.059797764E0
2.701709265E1,-7.040854096E-1,-7.062993050E-1,-4.452332497E0
2.703491498E1,-9.949742556E-1,-6.664079428E-1,-4.073009968E0
2.705273822E1,-1.151604295E0,-7.608023286E-1,-3.462379932E0
2.707056128E1,-1.128257036E0,-3.786900043E-1,-2.808899879E0
2.708838428E1,-1.297354937E0,-6.988441944E-2,-2.480337620E0
2.710620697E1,-1.008922935E0,6.222717762E-1,-1.682361126E0
2.712402545E1,-1.659115553E-1,1.788355589E0,-5.552520752E-1
2.714185156E1,2.198744416E-1,2.013292313E0,1.249587059E0
2.715967749E1,5.937769413E-1,2.009968281E0,2.546884537E0
2.717749866E1,1.040264368E0,2.094963551E0,4.484146118E0
2.719531769E1,1.053710103E0,1.744974375E0,5.791053772E0
2.721314356E1,6.490516067E-1,1.352936387E0,5.150412560E0
2.723096924E1,-3.636121750E-3,8.442932367E-1,4.408349991E0
2.724879077E1,-6.235737801E-1,1.016859889E0,3.132492065E0
2.726661371E1,1.417306662E-1,9.308711290E-1,1.095873833E0
2.728443683E1,1.773752332E0,-5.626308918E-2,2.808172226E0
2.730225971E1,1.228759050E0,-2.974247456E0,5.828996658E0
2.732008252E1,-2.927806377E-1,-4.635142326E0,4.278490067E0
2.733790546E1,-7.290302515E-1,-3.853708744E0,8.216295242E-1
2.735572876E1,2.356281877E-1,-2.358373165E0,-1.069400787E0
2.737355213E1,2.135490656E0,-8.228912950E-1,-9.743289948E-1
2.739137439E1,3.256752491E0,1.962867975E-1,3.087348938E-1
2.740919757E1,2.900295973E0,4.475271702E-1,1.097355843E0
2.742702045E1,1.845309019E0,3.333100080E-1,3.654432297E-1
2.744484259E1,5.504772067E-1,5.754947662E-3,-9.410133362E-1
2.746266718E1,-6.304643154E-1,-5.529479980E-1,-2.199970245E0
2.748048926E1,-1.295906067E0,-8.290666342E-1,-3.497905254E0
2.749830762E1,-1.288186312E0,-8.540136814E-1,-4.389800072E0
2.751613550E1,-1.103846192E0,-8.960785866E-1,-4.276434898E0
2.753395508E1,-6.286753416E-1,-7.718840837E-1,-3.978520393E0
2.755178388E1,-1.833896786E-1,-5.639511347E-1,-4.278787136E0
2.756959986E1,1.830135882E-1,-2.933883667E-1,-4.870767117E0
2.758742749E1,7.513837814E-1,3.290033340E-2,-4.561819553E0
2.760525000E1,1.306582689E0,3.713415861E-1,-3.301477909E0
2.762307270E1,1.875909925E0,9.944996834E-1,-1.965536594E0
2.764089606E1,2.007671356E0,1.830472589E0,-7.586269379E-1
2.765871894E1,5.882949829E-1,1.257216215E0,-2.478885651E-1
2.767654151E1,-4.711455107E-1,8.399670124E-1,6.365537643E-1
2.769436469E1,-9.048616886E-1,4.511375427E-1,2.140774727E0
2.771218775E1,-1.181017160E0,-2.465471029E-1,3.258813858E0
2.773001081E1,-1.082849860E0,-5.776991844E-1,4.461820602E0
2.774783222E1,-1.721337736E-1,-1.995904446E-1,5.385334969E0
2.776565747E1,3.994333148E-1,1.123519182E0,5.809001923E0
2.778347968E1,6.823564172E-1,3.795511246E0,2.962900162E0
2.780129816E1,1.418247342E0,3.920217037E0,1.489427567E0
2.781912494E1,6.123839021E-1,-3.800746202E-1,5.496615410E0
2.783694849E1,-1.307508826E0,-3.929994583E0,7.575526237E0
2.785477118E1,-2.456933260E0,-4.348571301E0,4.067275047E0
2.787259455E1,-2.420959949E0,-2.380050659E0,-5.503692627E-1
2.789041205E1,-2.790212870E0,-1.430935383E0,-3.374592304E0
2.790824018E1,-2.576000214E0,-1.357074022E0,-2.932599545E0
2.792606305E1,-1.509117365E0,-1.442193389E0,-1.095154762E0
2.794388739E1,-1.022256464E-1,-1.397418022E0,-7.392692566E-2
2.796170758E1,9.778964520E-1,-1.454234600E0,5.200262070E-1
2.797952582E1,1.375496387E0,-1.547708988E0,4.670429230E-2
2.799735602E1,1.420657635E0,-1.348551989E0,-1.113201141E0
2.801517700E1,1.624979615E0,-7.931216359E-1,-2.088304520E0
2.803300140E1,1.317811489E0,-2.571692467E-1,-3.296163559E0
2.805082465E1,4.425279200E-1,-2.222476006E-1,-4.315670490E0
2.806864569E1,-7.185772061E-2,-5.018162727E-2,-4.602280140E0
2.808646973E1,-4.344573319E-1,-2.998503447E-1,-3.788937092E0
2.810428766E1,-6.723234653E-1,-4.609593153E-1,-3.728136539E0
2.812211542E1,-9.653922319E-1,-8.011422157E-1,-2.070372105E0
2.813993823E1,-1.179375768E0,-9.772840142E-1,-9.886331558E-1
2.815776172E1,-9.796487093E-1,-2.000676394E-1,-1.161503792E0
2.817558386E1,-3.315768838E-1,1.048773527E0,-1.593265533E0
2.819340119E1,2.550247312E-2,2.118030071E0,-1.682841301E0
2.821122998E1,5.766247511E-1,3.071690559E0,-1.668096066E0
2.822905445E1,7.369984388E-1,2.964592934E0,1.897935867E-1
2.824687470E1,6.014512777E-1,2.084856033E0,2.300550461E0
2.826469965E1,7.260669470E-1,1.708644032E0,3.369313240E0
2.828251056E1,4.263830185E-1,1.023130655E0,3.973162651E0
2.830034912E1,-6.040757895E-2,3.858705759E-1,4.864830017E0
2.831816467E1,-2.342958450E-1,1.532233715E0,3.943037987E0
2.833599365E1,8.503129482E-1,2.315633774E0,1.936944962E0
2.835381366E1,2.125535250E0,9.345247746E-1,4.190426826E0
2.837163654E1,4.276993275E-1,-4.143217087E0,7.399447441E0
2.838945947E1,-1.467077851E0,-6.761426926E0,6.696434021E0
2.840728607E1,-1.034137964E0,-5.011968136E0,1.936361313E0
2.842509955E1,1.692438722E-1,-2.706069946E0,-1.736348152E0
2.844292963E1,1.758713007E0,-8.387798071E-1,-3.247952461E0
2.846075055E1,3.326923847E0,3.474816084E-1,-2.012725830E0
2.847857428E1,3.857230186E0,5.701931715E-1,-2.274885178E-1
2.849639691E1,3.268028259E0,5.207370520E-1,8.334293365E-1
2.851421887E1,1.815057874E0,1.237630844E-2,1.690225601E-1
2.853204376E1,2.527663112E-2,-5.690226555E-1,-1.617851257E0
2.854986463E1,-8.413621783E-1,-7.766607404E-1,-2.635835648E0
2.856768970E1,-1.416468501E0,-1.068242908E0,-3.360230923E0
2.858551184E1,-1.456444263E0,-1.087192774E0,-3.788626671E0
2.860333002E1,-1.218491793E0,-9.040589929E-1,-3.932021141E0
2.862115723E1,-9.688367248E-1,-7.524718046E-1,-3.973600388E0
2.863898023E1,-6.175585985E-1,-6.046470404E-1,-3.891406536E0
2.865679877E1,-2.672035992E-1,-3.989485502E-1,-3.671030521E0
2.867462598E1,1.940833926E-1,-4.227817059E-2,-3.151387215E0
2.869244898E1,5.820904970E-1,2.893546820E-1,-2.179389000E0
2.871027265E1,8.664563894E-1,6.554772854E-1,-1.077814102E0
2.872809522E1,1.180818200E0,1.451440454E0,4.977989197E-2
2.874591626E1,1.032603979E0,1.825783372E0,8.415355682E-1
2.876374188E1,5.052495599E-1,1.858101726E0,1.398815155E0
2.878156342E1,-2.652724087E-2,1.484356046E0,2.188063622E0
2.879938702E1,-3.948713541E-1,9.720821381E-1,2.508848190E0
2.881720911E1,-7.909387946E-1,1.953339577E-2,3.541994095E0
2.883503162E1,-3.844264448E-1,-2.675087452E-1,4.572291374E0
2.885285492E1,5.992166400E-1,5.420163870E-1,4.682250023E0
2.887067963E1,1.220409513E0,2.754429340E0,4.099076271E0
2.888849610E1,1.093361855E0,4.973538399E0,1.048491478E0
2.890631928E1,6.166214347E-1,3.578640938E0,-2.761220932E-1
2.892414697E1,-5.582796931E-1,-1.364351749E0,3.413272858E0
2.894196991E1,-2.403897762E0,-5.267152309E0,5.210913658E0
2.895978839E1,-3.375548363E0,-5.896213531E0,2.937039375E0
2.897761457E1,-3.286501884E0,-4.286143303E0,-7.934274673E-1
2.899543982E1,-2.974762201E0,-3.060870409E0,-2.360750675E0
2.901326172E1,-1.881725788E0,-1.953232765E0,-1.669847965E0
2.903108417E1,-1.993667185E-1,-1.100607157E0,1.760959625E-2
2.904890723E1,1.245067358E0,-7.038164139E-1,1.320586205E0
2.906673017E1,2.354735374E0,-4.107393026E-1,1.904272079E0
2.908455347E1,2.533023596E0,-1.060630083E-1,5.374631882E-1
2.910237567E1,1.822393775E0,1.099653244E-1,-1.799137592E0
2.912019898E1,1.147109509E0,2.027724981E-1,-3.332744122E0
2.913802167E1,2.730323076E-1,-7.474625111E-2,-4.178203583E0
2.915584381E1,-2.477751374E-1,-3.267560005E-1,-4.728073597E0
2.917366840E1,-5.174752474E-1,-5.004453659E-1,-4.428893089E0
2.919148578E1,-8.781304955E-1,-8.381631374E-1,-4.014073849E0
2.920930768E1,-6.738202572E-1,-5.141922235E-1,-4.273472309E0
2.922713764E1,-3.986511827E-1,-3.148323298E-1,-2.987075329E0
2.924495893E1,-4.329307675E-1,-7.599580288E-2,-1.969719410E0
2.926278192E1,-6.128939986E-1,4.803961515E-1,-1.868079185E0
2.928060529E1,-3.801324368E-1,1.234624863E0,-1.787944317E0
2.929841644E1,-1.253657043E-1,1.662135124E0,-5.851497650E-1
2.931625067E1,2.021728456E-1,1.537970543E0,1.391610146E0
2.933406983E1,7.752802372E-1,1.570552111E0,3.689261436E0
2.935188953E1,1.404878139E0,1.799041152E0,5.068161011E0
2.936971961E1,1.226854801E0,2.187115192E0,4.713638306E0
2.938754193E1,7.515636683E-1,1.932357788E0,4.069775581E0
2.940536542E1,1.848520637E-1,2.158164501E0,3.471324921E0
2.942318335E1,7.139009833E-1,2.625216007E0,1.216501236E0
2.944101026E1,1.703198910E0,9.245188236E-1,2.079286575E0
2.945883392E1,9.206227064E-1,-3.399796963E0,6.299526215E0
2.947665796E1,-8.781149387E-1,-5.907493591E0,6.145110130E0
2.949447968E1,-1.256169558E0,-4.044788361E0,1.055241585E0
2.951229810E1,-3.237411082E-1,-1.460636258E0,-3.073750973E0
2.953012549E1,1.095908403E0,-5.497121811E-2,-3.748398781E0
2.954794867E1,2.571847200E0,1.501476765E-1,-1.014575005E0
2.956577142E1,3.045845032E0,-3.322148323E-2,1.682701111E0
2.958359479E1,2.948461533E0,2.247523069E-1,2.670039177E0
2.960141699E1,1.983908653E0,4.930238724E-1,8.896903992E-1
2.961923969E1,5.123825669E-1,1.284414530E-1,-1.171230316E0
2.963706293E1,-5.145560503E-1,-4.304660559E-1,-1.900287628E0
2.965488037E1,-1.259661198E0,-9.204453826E-1,-2.319647312E0
2.967270948E1,-1.478642344E0,-1.034777641E0,-2.919509411E0
2.969053162E1,-1.397679448E0,-9.870169163E-1,-3.081276894E0
2.970835449E1,-1.167939901E0,-9.335333705E-1,-3.452356815E0
2.972617749E1,-7.628784180E-1,-7.330245972E-1,-3.606630802E0
2.974399902E1,-6.188766956E-1,-6.846959591E-1,-4.057424068E0
2.976182501E1,-2.858603597E-1,-3.942601681E-1,-4.598484516E0
2.977965387E1,2.365628481E-1,1.060752869E-1,-4.275071144E0
2.979746930E1,6.431279182E-1,4.804577827E-1,-2.905079842E0
2.981528723E1,7.398846149E-1,9.935687780E-1,-1.224043846E0
2.983311475E1,4.744349718E-1,1.115924001E0,2.343301773E-1
2.985093775E1,-8.661185205E-2,1.143273950E0,4.183120728E-1
2.986876068E1,-3.656423092E-1,9.072136879E-1,1.767878532E0
2.988658325E1,-8.993388414E-1,2.343269587E-1,2.816198349E0
2.990440619E1,-1.112591505E0,-5.653582811E-1,4.171738625E0
2.992222925E1,-5.048710108E-1,-2.481418848E-1,5.586451530E0
2.994005219E1,-2.469655275E-1,1.870632768E0,4.131555557E0
2.995787372E1,3.267817199E-1,3.074308634E0,2.323858261E0
2.997569751E1,1.745548487E0,1.557903767E0,5.200058937E0
2.999352198E1,5.376313925E-1,-1.841957688E0,7.699585915E0
3.001134937E1,-1.024366140E0,-3.346497774E0,5.621915817E0
3.002916626E1,-1.186233521E0,-1.634061337E0,1.397240639E0
3.004698938E1,-2.082689047E0,-7.865979671E-1,-2.370317459E0
3.006481238E1,-2.615964651E0,-7.699007988E-1,-3.138063431E0
3.008264002E1,-2.169749975E0,-1.074836969E0,-1.049168587E0
3.010045746E1,-1.428954244E0,-1.551905990E0,5.420370102E-1
3.011828174E1,-4.621302485E-1,-1.911783576E0,1.734276772E0
3.013610688E1,3.869755864E-1,-1.796661019E0,1.801151276E0
3.015392676E1,7.834845781E-1,-1.257792711E0,7.615947723E-2
3.017174921E1,1.381076932E0,-4.184708595E-1,-1.587442398E0
3.018956781E1,1.336463809E0,1.178432703E-1,-3.026488304E0
3.020739527E1,5.987864733E-1,-1.656150818E-2,-4.497867107E0
3.022521723E1,-7.064804435E-2,-1.744791269E-1,-5.173720837E0
3.024304175E1,-6.881231070E-1,-4.953529835E-1,-5.459611416E0
3.026086255E1,-1.178850651E0,-7.745851278E-1,-5.064253330E0
3.027868799E1,-1.544415236E0,-8.924338222E-1,-4.202363491E0
3.029650995E1,-1.571234703E0,-7.879862785E-1,-3.349581718E0
3.031432202E1,-1.467388868E0,-5.707941055E-1,-1.817576408E0
3.033215521E1,-1.245499492E0,-1.172869205E-1,-2.882146835E-1
3.034997821E1,-7.744575739E-1,9.618424177E-1,1.156816483E-1
3.036780127E1,-2.671529949E-1,2.100714684E0,2.887296677E-1
3.038562372E1,4.270904660E-1,3.254159927E0,9.670124054E-1
3.040344696E1,5.693781376E-1,3.220707417E0,1.747315407E0
3.042127026E1,7.290827036E-1,2.650122166E0,3.061092377E0
3.043909278E1,5.171599388E-1,1.717841864E0,3.603054047E0
3.045691516E1,-7.137209177E-2,4.261236191E-1,3.291569710E0
3.047473828E1,-6.992663145E-1,6.235601902E-1,3.182479858E0
3.049256134E1,-6.647740006E-1,1.107442856E0,1.226994514E0
3.051038300E1,1.127152920E0,6.021143198E-1,1.095619202E0
3.052820801E1,1.681585789E0,-2.419687033E0,6.247792244E0
3.054602967E1,1.452028751E-1,-5.321176052E0,8.361416817E0
3.056385156E1,-1.469761729E-1,-3.947222710E0,3.838425636E0
3.058167700E1,7.656708360E-1,-1.612906933E0,4.518508911E-3
3.059949408E1,1.574586153E0,-6.427289248E-1,-1.508844376E0
3.061731684E1,2.446312904E0,-4.294317961E-1,-8.935832977E-1
3.063514325E1,2.996461868E0,-7.427394390E-2,1.793432236E-1
3.065296833E1,2.979979038E0,5.117360353E-1,6.619224548E-1
3.067078943E1,2.287036896E0,7.050246000E-1,6.817884445E-1
3.068860040E1,6.084458828E-1,2.151298523E-2,-4.248313904E-1
3.070643543E1,-8.377279639E-1,-6.051973104E-1,-1.696762562E0
3.072425885E1,-1.603829145E0,-9.330584407E-1,-2.632725716E0
3.074207977E1,-2.017392397E0,-1.157726169E0,-3.339994431E0
3.075990546E1,-2.015872955E0,-1.148566008E0,-3.994557858E0
3.077772699E1,-1.666510105E0,-9.475441575E-1,-4.253664017E0
3.079555029E1,-1.296838641E0,-8.531299829E-1,-4.354906082E0
3.081337250E1,-9.676992893E-1,-8.042876720E-1,-4.531201839E0
3.083119580E1,-4.270728528E-1,-6.185989380E-1,-4.615677357E0
3.084901850E1,5.040936470E-1,-1.427760124E-1,-4.017614365E0
3.086684058E1,1.370172143E0,3.488259315E-1,-2.217282295E0
3.088466522E1,1.810864687E0,1.119244576E0,-1.475887299E-1
3.090248706E1,1.870115519E0,1.851539731E0,9.300861359E-1
3.092030512E1,1.115104198E0,2.201594830E0,7.511968613E-1
3.093813342E1,5.023379326E-1,1.978835821E0,1.842307091E0
3.095595050E1,-3.381067216E-1,1.376211643E0,2.426351547E0
3.097377857E1,-1.327420115E0,1.485062838E-1,3.030114174E0
3.099160150E1,-1.536243677E0,-8.581930399E-1,3.964273453E0
3.100942450E1,-5.311591625E-1,-3.452419043E-1,5.052697182E0
3.102724707E1,-6.922155619E-3,2.024841785E0,3.829478264E0
3.104506885E1,7.663319111E-1,3.564486027E0,8.810920715E-1
3.106289392E1,8.988094926E-1,1.556300044E0,2.803041458E0
3.108071613E1,-5.937904716E-1,-2.657839298E0,5.990549088E0
3.109853601E1,-2.689990997E0,-4.715671062E0,5.080513954E0
3.111636157E1,-2.746959925E0,-2.900730133E0,2.447853088E-1
3.113418421E1,-2.379103899E0,-1.544517517E0,-2.216858387E0
3.115200739E1,-2.323628664E0,-1.601851583E0,-1.725840092E0
3.116982916E1,-1.588629007E0,-1.910949469E0,4.164581299E-1
3.118764856E1,-4.355003238E-1,-1.611129045E0,1.439363480E0
3.120547571E1,5.445660353E-1,-1.504755616E0,2.114312172E0
3.122329425E1,1.214335203E0,-1.193720698E0,1.771720886E0
3.124112128E1,1.444948077E0,-7.133831382E-1,1.977443695E-1
3.125894403E1,1.533032417E0,-4.806280136E-2,-1.303137779E0
3.127676612E1,1.302139759E0,5.407541990E-1,-3.130521297E0
3.129459143E1,9.776609540E-1,9.184260368E-1,-4.592499256E0
3.131241260E1,4.064036310E-1,7.790952921E-1,-5.270758152E0
3.133023578E1,4.010012746E-2,4.866627455E-1,-5.483706951E0
3.134805860E1,-3.379769027E-1,-3.308975697E-2,-4.430095196E0
3.136588086E1,-1.000502944E0,-6.826764345E-1,-3.888454914E0
3.138370471E1,-1.333808661E0,-8.464382291E-1,-3.511476040E0
3.140152734E1,-1.245996118E0,-7.913631201E-1,-2.226118565E0
3.141934522E1,-1.064864278E0,-2.159718275E-1,-1.692660809E0
3.143717279E1,-6.812355518E-1,8.390247822E-1,-1.180266380E0
3.145499573E1,-4.124483168E-1,1.624704838E0,-3.875970840E-1
3.147281848E1,-6.555274129E-2,2.021658659E0,9.756011963E-1
3.149063642E1,5.327715874E-1,2.084308147E0,2.605619431E0
3.150846308E1,1.201305628E0,1.891190648E0,4.513836861E0
3.152628553E1,1.077144861E0,1.427047610E0,5.249521255E0
3.154410987E1,5.903784037E-1,9.656887054E-1,4.413395882E0
3.156193286E1,2.658530176E-1,9.280588627E-1,4.108733177E0
3.157975580E1,1.189106703E-2,1.818041205E0,2.965924263E0
3.159757807E1,1.504625082E0,2.082368374E0,1.228920937E0
3.161540137E1,2.531421423E0,-1.075505018E-1,3.653006554E0
3.163322431E1,4.958545566E-1,-4.556763172E0,6.844555855E0
3.165104737E1,-1.441672325E0,-5.991803646E0,4.513983727E0
3.166886866E1,-1.165490985E0,-3.569884777E0,-3.124742508E-1
3.168669330E1,-5.140146613E-1,-1.608009815E0,-3.719737530E0
3.170451557E1,1.119291425E0,1.343195438E-1,-3.809649944E0
3.172233392E1,2.365829229E0,3.556954861E-1,-9.148559570E-1
3.174015967E1,2.855441570E0,5.376886129E-1,1.620905876E0
3.175798639E1,2.200442314E0,6.203408241E-1,1.858414650E0
3.177580573E1,3.653150201E-1,1.247507334E-1,-2.945232391E-1
3.179363013E1,-8.508455753E-1,-1.427707672E-1,-1.844751835E0
3.181145209E1,-1.462347507E0,-3.971650600E-1,-3.143380642E0
3.182927606E1,-1.743340969E0,-6.771804094E-1,-3.634340763E0
3.184709839E1,-1.753630042E0,-1.046518326E0,-3.684210300E0
3.186492133E1,-1.393157005E0,-1.016560197E0,-3.452812672E0
3.188273407E1,-9.597617388E-1,-9.168050289E-1,-3.616271973E0
3.190056659E1,-4.986752272E-1,-5.731358528E-1,-4.241689205E0
3.191838678E1,-6.076076627E-2,-3.169944286E-1,-4.286069393E0
3.193621546E1,2.864900231E-1,-5.422723293E-2,-3.653793812E0
3.195403028E1,3.734375238E-1,1.459319592E-1,-2.851564884E0
3.197185694E1,5.167940855E-1,6.712203026E-1,-1.707524300E0
3.198967792E1,6.175986528E-1,1.271310449E0,-9.739971161E-2
3.200750409E1,4.091990888E-1,1.574120641E0,1.226779938E0
3.202532196E1,-1.877172589E-1,1.498245597E0,2.243971825E0
3.204314850E1,-9.202148914E-1,7.057566643E-1,3.604756355E0
3.206097327E1,-1.078141570E0,-3.751516342E-2,4.895237923E0
3.207879541E1,-4.243072867E-1,-1.861346960E-1,6.098470688E0
3.209661774E1,8.347421885E-2,3.408961296E-1,6.207778931E0
3.211444104E1,-4.473292828E-2,2.847831726E0,4.265265465E0
3.213226380E1,-4.608548284E-1,3.265301943E0,1.153020859E-1
3.215008667E1,-7.868273258E-1,1.237047434E0,1.362658501E0
3.216790912E1,-1.738883734E0,-2.571614742E0,3.093376160E0
3.218572724E1,-2.751203299E0,-4.190206528E0,2.155058861E0
3.220355512E1,-3.264683008E0,-4.312059402E0,4.841642380E-1
3.222137793E1,-2.839830637E0,-3.283402205E0,-9.031515121E-1
3.223920044E1,-1.717169166E0,-1.835103035E0,-1.326365471E0
3.225702356E1,-5.853647590E-1,-1.212147593E0,-3.069353104E-1
3.227484552E1,8.487790823E-1,-6.635564566E-1,1.565459251E0
3.229267060E1,1.912910342E0,-5.831594467E-1,3.500818253E0
3.231049158E1,2.086441517E0,-5.312268734E-1,2.850259781E0
3.232831000E1,1.336122990E0,-2.861486673E-1,9.324073792E-3
3.234613770E1,6.023353338E-1,-3.137270212E-1,-1.827616692E0
3.236396094E1,-7.817851007E-2,-1.734684706E-1,-3.806636333E0
3.238178290E1,-4.547919631E-1,-3.945803642E-2,-5.272538662E0
3.239960272E1,-7.079334259E-1,-3.464519978E-2,-5.692894459E0
3.241742890E1,-6.618897915E-1,-2.375429869E-1,-4.814294815E0
3.243525196E1,-1.078179598E0,-8.013085127E-1,-3.447259426E0
3.245307440E1,-1.604459643E0,-1.139024615E0,-3.089026451E0
3.247089740E1,-1.718777061E0,-9.104005694E-1,-2.589160919E0
3.248872046E1,-1.439126611E0,-2.555670738E-1,-2.635680199E0
3.250654218E1,-6.953088045E-1,7.691754103E-1,-2.145888329E0
3.252435553E1,2.340569198E-1,1.877167702E0,-1.052609444E0
3.254218854E1,1.164897561E0,2.478862762E0,1.307875633E0
3.256001172E1,1.843086123E0,3.016261101E0,3.072510719E0
3.257783380E1,2.215369701E0,3.126970530E0,4.329640388E0
3.259565827E1,1.623477340E0,2.545053482E0,3.762096405E0
3.261348023E1,6.685054898E-1,1.488650560E0,2.948981285E0
3.263129828E1,-3.241678476E-1,1.328959465E-1,3.753369331E0
3.264912622E1,-3.991121650E-1,8.114107847E-1,2.637566566E0
3.266694812E1,1.194576025E0,8.222444057E-1,1.530614853E0
3.268477149E1,2.425191879E0,-5.124055147E-1,4.651965141E0
3.270259418E1,7.137031555E-1,-4.029564857E0,7.783507347E0
3.272041284E1,-8.062493205E-1,-4.471803665E0,4.761859894E0
3.273823963E1,-5.555108786E-1,-2.065923691E0,1.823434830E-1
3.275606275E1,-1.733748913E-1,-8.214107752E-1,-2.413730145E0
3.277388703E1,8.290885687E-1,-5.119568110E-1,-1.494471550E0
3.279170709E1,1.579309464E0,-9.545232654E-1,7.351884842E-1
3.280952637E1,2.278415203E0,-4.843420982E-1,1.954735756E0
3.282735401E1,2.310078621E0,3.666009903E-1,8.733263016E-1
3.284517566E1,1.186957359E0,2.105610371E-1,-7.977046967E-1
3.286300098E1,-2.120890021E-1,-4.930084944E-1,-2.023436546E0
3.288082306E1,-9.940451384E-1,-8.739259243E-1,-2.689264297E0
3.289864447E1,-1.822839022E0,-1.375491381E0,-3.234835625E0
3.291646808E1,-2.213145733E0,-1.409022808E0,-3.774032593E0
3.293428705E1,-1.796400785E0,-8.333345652E-1,-4.244074345E0
3.295211353E1,-1.254448295E0,-4.965518713E-1,-4.094531536E0
3.296993646E1,-6.588233709E-1,-3.180866241E-1,-3.948577881E0
3.298775928E1,2.918632329E-1,6.173360348E-2,-3.218313694E0
3.300558246E1,1.027741671E0,3.074349165E-1,-2.244132996E0
3.302340473E1,1.605510950E0,7.726930380E-1,-1.284736633E0
3.304123096E1,1.344442368E0,1.086997151E0,-5.186357498E-1
3.305904755E1,2.840498984E-1,1.005540967E0,-5.569076538E-1
3.307687268E1,-4.202360511E-1,1.306982636E0,-3.569507599E-2
3.309469696E1,-9.995360374E-1,1.220692515E0,5.821323395E-1
3.311251935E1,-1.280306101E0,7.844378948E-1,1.819547653E0
3.313034931E1,-1.495457768E0,-2.147079706E-1,3.578679085E0
3.314816498E1,-1.191804647E0,-6.941552758E-1,5.235088348E0
3.316598749E1,-7.040157318E-1,-3.758095503E-1,5.919222832E0
3.318381043E1,-4.129528403E-1,2.114157200E0,4.139418602E0
3.320163288E1,-2.429168671E-1,3.663908005E0,3.268346786E-1
3.321945673E1,-6.730266809E-1,1.164218664E0,1.578773499E0
3.323728174E1,-1.465848088E0,-2.554510832E0,5.080956459E0
3.325510028E1,-2.530603647E0,-3.925742149E0,3.905724525E0
3.327292450E1,-2.447754622E0,-2.645874500E0,6.401863098E-1
3.329074872E1,-2.232772350E0,-1.692178845E0,-1.160024643E0
3.330856976E1,-1.785901427E0,-1.294667721E0,-1.406613350E0
3.332639276E1,-1.182698488E0,-1.561323047E0,-3.315477371E-1
3.334421552E1,-1.635483503E-1,-1.878555536E0,1.114125252E0
3.336203882E1,5.482983589E-1,-2.291160583E0,1.942298889E0
3.337985962E1,1.225381851E0,-2.079227209E0,1.722567558E0
3.339768543E1,1.596380353E0,-1.044960618E0,-5.147457123E-2
3.341550702E1,1.610591054E0,-1.983002424E-1,-1.784233093E0
3.343332623E1,1.289779782E0,3.909808397E-1,-3.306444168E0
3.345115198E1,6.620210409E-1,3.411623240E-1,-4.266758442E0
3.346897528E1,2.436219156E-1,1.673381329E-1,-4.615485191E0
3.348679346E1,6.369900703E-2,3.949964046E-2,-4.284980774E0
3.350462103E1,-3.995255232E-1,-2.069506645E-1,-3.886891365E0
3.352244239E1,-9.539732933E-1,-4.443619251E-1,-3.784637928E0
3.354026697E1,-1.358500481E0,-7.093588710E-1,-3.078071117E0
3.355808576E1,-1.565887570E0,-7.650381923E-1,-1.880027294E0
3.357591468E1,-1.332727432E0,-2.630927563E-1,-1.160608292E0
3.359373572E1,-7.614749074E-1,7.449878454E-1,-5.359630585E-1
3.361155780E1,-2.698149681E-1,1.780498981E0,-3.285331726E-1
3.362938062E1,3.852177858E-1,2.654954433E0,2.284269333E-1
3.364720355E1,1.110456705E0,3.220006943E0,1.392314911E0
3.366502478E1,1.583407283E0,3.095872879E0,3.293677330E0
3.368283746E1,1.354182243E0,2.400300503E0,4.661126137E0
3.370067273E1,5.626659393E-1,1.054716706E0,4.919914246E0
3.371849024E1,-5.090572238E-1,9.605405331E-1,4.104947090E0
3.373631238E1,-8.258925080E-1,9.028104544E-1,1.621014595E0
3.375414014E1,2.128942013E-1,-5.444403887E-1,1.871278763E0
3.377196314E1,-7.304018736E-2,-4.207787514E0,6.915740967E0
3.378978217E1,-1.804637671E0,-6.319901943E0,7.223420143E0
3.380760712E1,-2.041639388E-1,-2.568878651E0,2.348978996E0
3.382543256E1,1.034735441E0,5.173552036E-2,-1.742409706E0
3.384325409E1,2.112525225E0,1.055889726E0,-2.422674656E0
3.386107715E1,3.014363527E0,9.559125900E-1,-1.323575974E-1
3.387889936E1,2.729968548E0,-5.989550352E-1,1.844014168E0
3.389672254E1,1.976107717E0,-6.733176708E-1,2.192964554E0
3.391454517E1,1.035393953E0,-3.763470650E-1,7.856731415E-1
3.393236835E1,-2.583491206E-1,-5.605684519E-1,-8.984422684E-1
3.395019062E1,-1.441768169E0,-9.456723332E-1,-2.411792278E0
3.396801361E1,-2.048193693E0,-1.144710541E0,-3.345895767E0
3.398583533E1,-2.068541765E0,-1.054536223E0,-3.900304794E0
3.400366071E1,-1.704522848E0,-7.530844212E-1,-3.883610249E0
3.402147693E1,-1.379621506E0,-6.411389112E-1,-3.895134926E0
3.403929914E1,-9.879649878E-1,-4.135612249E-1,-3.939860344E0
3.405712873E1,-8.366917372E-1,-4.306888580E-1,-3.695925236E0
3.407495075E1,-5.896963477E-1,-4.455208778E-1,-3.420670986E0
3.409277289E1,-1.154270619E-1,-1.645509005E-1,-2.405603886E0
3.411059589E1,1.849491596E-1,3.058998585E-1,-2.173431873E0
3.412841883E1,5.625454187E-1,1.054534316E0,-1.965556622E0
3.414624170E1,9.547448158E-1,1.653840303E0,-8.151397705E-1
3.416406415E1,2.423123717E-1,1.297912240E0,-7.027721405E-2
3.418188819E1,-4.896026254E-1,7.651937008E-1,6.921625137E-1
3.419970868E1,-7.880403399E-1,4.512251616E-1,1.530781746E0
3.421753284E1,-9.376750588E-1,2.851819992E-2,2.802047729E0
3.423535547E1,-7.306588292E-1,-4.308781624E-1,4.051283836E0
3.425317352E1,-5.359002948E-1,-1.276364326E-1,5.106508255E0
3.427099994E1,-1.116140604E0,1.705488920E0,4.046275139E0
3.428882630E1,-5.859773755E-1,2.402692080E0,1.678365707E0
3.430664551E1,3.302404881E-1,3.743793964E-1,5.122323036E0
3.432446973E1,-4.360155463E-1,-3.016430378E0,7.233539581E0
3.434228772E1,-1.676420450E0,-4.310853481E0,5.132147789E0
3.436011548E1,-1.498173714E0,-2.209577799E0,6.441783905E-2
3.437793762E1,-1.483736753E0,-2.522435188E-1,-4.177393436E0
3.439576099E1,-1.993598104E0,4.888172150E-1,-5.201204777E0
3.441358338E1,-1.393297434E0,1.172090769E-1,-2.052719116E0
3.443140650E1,-4.400148392E-1,-7.084053755E-1,4.634542465E-1
3.444922894E1,5.990989208E-1,-1.624052763E0,3.050301552E0
3.446705194E1,1.127798319E0,-1.772196174E0,3.136002541E0
3.448486878E1,9.546648264E-1,-1.496625423E0,1.349697113E0
3.450269830E1,4.749180377E-1,-9.134864807E-1,-8.543510437E-1
3.452051691E1,3.936076164E-2,-2.296726704E-1,-2.961801529E0
3.453835132E1,-3.565639853E-1,4.032945633E-2,-4.011876583E0
3.455616577E1,-6.342750788E-1,2.107193470E-1,-4.732386112E0
3.457398840E1,-1.088084221E0,-2.832373381E-1,-4.519645214E0
3.459181140E1,-1.097170830E0,-2.878060341E-1,-3.833356857E0
3.460962995E1,-1.383307219E0,-6.107649803E-1,-3.352935314E0
3.462745673E1,-1.559849262E0,-7.848753929E-1,-2.845857620E0
3.464528363E1,-1.357184768E0,-8.080160618E-1,-1.510068893E0
3.466310199E1,-1.011511326E0,-2.078412771E-1,-8.567295074E-1
3.468092499E1,-6.252040267E-1,6.944891214E-1,-5.565319061E-1
3.469874750E1,-2.938857377E-1,1.409430146E0,7.435684204E-1
3.471656616E1,1.291435957E-2,1.982328773E0,1.351580620E0
3.473439295E1,5.120546222E-1,2.339656830E0,2.249794960E0
3.475221600E1,1.022090912E0,2.262660503E0,3.605375290E0
3.477003906E1,6.236521006E-1,1.471017003E0,4.199400902E0
3.478786090E1,-3.390138745E-1,5.218007565E-1,3.872030258E0
3.480568414E1,-9.232947826E-1,9.055641890E-1,2.297719002E0
3.482350842E1,1.162236929E-2,2.582938671E-1,2.237758636E0
3.484132617E1,1.113087177E0,-1.585111022E0,5.097332001E0
3.485915283E1,5.546480417E-1,-4.051552773E0,8.035603523E0
3.487697522E1,-5.046849251E-1,-4.702834129E0,6.221889496E0
3.489479822E1,3.213763237E-3,-1.914613247E0,1.439784050E0
3.491262110E1,6.523141861E-1,-1.555073261E-1,-2.071987629E0
3.493044409E1,1.600358963E0,4.022610188E-1,-3.132603168E0
3.494826672E1,2.491567612E0,8.069574833E-2,-1.369890213E0
3.496608930E1,2.759389400E0,-5.483473539E-1,3.076753616E-1
3.498391211E1,2.787042141E0,-5.225107670E-1,1.255821228E0
3.500173505E1,2.337278366E0,-2.529001236E-2,2.536325455E-1
3.501955261E1,1.081878185E0,-9.007573128E-2,-1.588648796E0
3.503737915E1,-1.105121970E-1,-4.296526909E-1,-2.752365112E0
3.505520307E1,-7.506793141E-1,-6.187964678E-1,-3.518686771E0
3.507302722E1,-8.976173401E-1,-4.781466722E-1,-3.935163498E0
3.509084717E1,-9.936980605E-1,-5.129151344E-1,-3.673169136E0
3.510867273E1,-1.025643110E0,-5.352427959E-1,-3.362005711E0
3.512649414E1,-1.027020454E0,-6.544628143E-1,-3.095366001E0
3.514431287E1,-1.078813434E0,-8.480995297E-1,-2.661990166E0
3.516213941E1,-8.701838851E-1,-8.016031384E-1,-3.059337616E0
3.517996234E1,-3.356260657E-1,-3.757666349E-1,-3.121809959E0
3.519778510E1,9.396295249E-2,1.114658117E-1,-2.543776035E0
3.521560803E1,2.790173590E-1,5.627467632E-1,-1.741848946E0
3.523343042E1,3.908768296E-1,1.010528564E0,-1.572178841E0
3.525124890E1,3.676223159E-1,1.420800805E0,-1.519677162E0
3.526907642E1,-1.116220951E-1,1.183622241E0,-9.018507004E-1
3.528689936E1,-3.381256461E-1,1.144129515E0,4.476165771E-1
3.530472132E1,-4.514455795E-1,7.084803581E-1,1.956652641E0
3.532253961E1,-7.976471186E-1,-2.781009674E-1,4.208463669E0
3.534036676E1,-1.194065213E0,-6.350792646E-1,5.593773842E0
3.535818890E1,-1.585284710E0,1.232058048E0,4.611972809E0
3.537601410E1,-9.724709392E-1,1.881537676E0,2.755795479E0
3.539383454E1,1.213319302E-1,7.955491543E-2,5.868017197E0
3.541165924E1,-3.281503320E-1,-2.729878426E0,7.931580544E0
3.542947730E1,-9.366693497E-1,-4.002939701E0,6.962735176E0
3.544729877E1,-9.197779894E-1,-1.996418118E0,2.329290390E0
3.546512537E1,-9.982625842E-1,-3.484909534E-1,-1.808411598E0
3.548295020E1,-1.463830829E0,3.933064938E-1,-3.767651558E0
3.550077191E1,-1.759576082E0,-5.352575779E-1,-2.538761616E0
3.551859442E1,-1.198619962E0,-1.357495070E0,-6.552200317E-1
3.553641736E1,-7.524259090E-1,-2.269864321E0,5.603895187E-1
3.555424018E1,1.362709701E-2,-2.534717560E0,1.056649208E0
3.557206201E1,1.062754154E0,-1.859733343E0,9.469060898E-1
3.558988819E1,1.339931726E0,-1.333174706E0,-2.815961838E-1
3.560770691E1,1.489065170E0,-4.976212978E-1,-1.791988850E0
3.562553113E1,1.454032660E0,2.830977440E-1,-3.319435596E0
3.564335425E1,1.074978352E0,7.161594629E-1,-4.516718388E0
3.566117615E1,2.429742217E-1,5.555706024E-1,-5.365025997E0
3.567899945E1,-2.005544901E-1,4.522744417E-1,-5.388527870E0
3.569681128E1,-5.999937057E-1,1.534343958E-1,-4.052801609E0
3.571464447E1,-1.317722201E0,-3.726940155E-1,-3.251570225E0
3.573246735E1,-1.435055852E0,-4.451563954E-1,-2.391541481E0
3.575028638E1,-9.663125277E-1,-8.917331696E-3,-1.035648346E0
3.576811316E1,-8.304088116E-1,3.210275173E-1,8.537578583E-2
3.578593628E1,-5.676072836E-1,7.167853117E-1,1.215142250E0
3.580375843E1,5.027252436E-2,1.320429444E0,2.035035133E0
3.582158130E1,6.507344842E-1,1.844739318E0,2.946101189E0
3.583940418E1,1.075533628E0,1.884837747E0,3.970852852E0
3.585722699E1,1.217288733E0,1.774576664E0,4.342314720E0
3.587504810E1,9.575961232E-1,1.517463088E0,3.665655136E0
3.589287250E1,7.071183920E-1,1.316744804E0,3.124043465E0
3.591069592E1,1.099926531E-1,1.399755836E0,2.469880104E0
3.592851801E1,1.357252300E-1,6.478273869E-1,1.453835487E0
3.594634833E1,1.342646122E0,-6.077332497E-1,2.359783173E0
3.596416327E1,1.181022167E0,-3.701240301E0,6.103004456E0
3.598198584E1,8.561217785E-2,-5.521769047E0,6.977119446E0
3.599980890E1,7.381519079E-1,-3.139079094E0,1.814270973E0
3.601762616E1,1.523213506E0,-1.359507322E0,-1.682885647E0
3.603545404E1,1.976843238E0,-3.640389442E-1,-3.092473984E0
3.605327899E1,2.386371851E0,6.739735603E-3,-2.212960243E0
3.607109986E1,2.372328281E0,-2.917361259E-2,-5.699453354E-1
3.608892194E1,2.251377583E0,3.031926155E-1,-1.179456711E-1
3.610674390E1,1.415084362E0,1.764584780E-1,-6.842422485E-1
3.612456903E1,2.420935035E-1,-2.709444761E-1,-1.641890526E0
3.614239056E1,-4.245060086E-1,-5.086514950E-1,-2.497029781E0
3.616021283E1,-8.428784609E-1,-7.754828930E-1,-3.274949074E0
3.617803571E1,-9.895453453E-1,-9.365278482E-1,-3.621000767E0
3.619585749E1,-9.732338190E-1,-9.891046286E-1,-3.652440548E0
3.621368274E1,-7.419335246E-1,-8.257802129E-1,-3.970081806E0
